File: SCM-based_concrete_fc_ft_flex_Ec_Cl28_Cl90_Cl180_Shrink7_Shrink28_Shrink90_Shrink120_Creep28_Creep90_Creep150_Abr28.csv
 Cement(kg/m3), Water(kg/m3),Coarse aggregate(kg/m3),Fine aggregate(kg/m3), FA (kg/m3),SF (kg/m3),GGBFS (kg/m3),SP (kg/m3),Cylinder compressive strength (MPa),Splitting tensile strength (MPa),Flexural strength (MPa),Elastic modulus (GPa),Chloride permeability (Coulomb) 28d,Chloride permeability (Coulomb) 90d,Chloride permeability (Coulomb) 180d,Drying shrinkage (??) 7d,Drying shrinkage (??) 28d,Drying shrinkage (??) 90d,Drying shrinkage (??)120d,Creep (??) 28d,Creep (??) 90d,Creep (??) 150d,Abrasion (mm) 28 d
300,150,1097,673,200,0,0,4.5,52.7,2.52,-1,-1,-1,-1,-1,-1,-1,-1,-1,-1,-1,-1,-1
300,150,1097,673,0,0,200,5.5,59.5,2.75,-1,-1,-1,-1,-1,-1,-1,-1,-1,-1,-1,-1,-1
225,150,1097,673,200,0,75,5,48.45,2.5,-1,-1,-1,-1,-1,-1,-1,-1,-1,-1,-1,-1,-1
83,168,820,932,332,0,0,1.69,40,-1,-1,-1,-1,-1,-1,-1,-1,-1,-1,-1,-1,-1,-1
83,168,820,932,0,0,332,1.69,57.6,-1,-1,-1,-1,-1,-1,-1,-1,-1,-1,-1,-1,-1,-1
83,168,820,932,83,0,249,1.69,63,-1,-1,40,-1,-1,-1,-1,-1,-1,-1,-1,-1,-1,-1
83,168,820,932,166,0,166,1.69,41.4,-1,-1,41.5,-1,-1,-1,-1,-1,-1,-1,-1,-1,-1,-1
83,168,820,932,249,0,83,1.69,28,-1,-1,38,-1,-1,-1,-1,-1,-1,-1,-1,-1,-1,-1
260,206.7,849.4,785,130,0,130,5.43,28.48,-1,-1,-1,-1,-1,-1,-1,-1,-1,-1,-1,-1,-1,-1
130,206.7,849.4,785,195,0,195,4.68,16.71,-1,-1,-1,-1,-1,-1,-1,-1,-1,-1,-1,-1,-1,-1
260,214.9,832,785,130,0,130,5.67,32.62,2.75,-1,-1,-1,-1,-1,-1,400,471,478,-1,-1,-1,-1
130,214.9,832,785,195,0,195,7.28,26.21,1.67,-1,-1,-1,-1,-1,-1,407,507,507,-1,-1,-1,-1
290,163,1048,670,72.5,0,0,0,36,-1,-1,-1,-1,-1,-1,-1,-1,-1,-1,-1,-1,-1,-1
290,163,1048,670,72.5,0,0,0,37,-1,-1,-1,-1,-1,-1,-1,-1,-1,-1,-1,-1,-1,-1
253.75,163,1048,670,108.75,0,0,0,43,4.128,-1,-1,-1,-1,-1,-1,-1,-1,-1,-1,-1,-1,-1
253.75,163,1048,670,108.75,0,0,0,35.4,3.4338,-1,-1,-1,-1,-1,-1,-1,-1,-1,-1,-1,-1,-1
253.75,163,1048,670,108.75,0,0,0,38,3.8038,-1,-1,-1,-1,-1,-1,-1,-1,-1,-1,-1,-1,-1
235.62,163,1048,670,0,0,126.88,0,44.5,-1,-1,-1,-1,-1,-1,-1,-1,-1,-1,-1,-1,-1,-1
253.75,163,1048,670,90.62,18.12,0,0,31,-1,-1,-1,-1,-1,-1,-1,-1,-1,-1,-1,-1,-1,-1
368.53,260.14,810,795,50.77,0,0,0,23.72,-1,-1,-1,-1,-1,-1,-1,-1,-1,-1,-1,-1,-1,-1
411.89,260.14,810,795,0,16.08,0,0,34.77,-1,-1,-1,-1,-1,-1,-1,-1,-1,-1,-1,-1,-1,-1
436.5,200,778,880,0,18,0,6.7,53.7,-1,-1,-1,5183,1403,-1,-1,-1,-1,-1,-1,-1,-1,-1
337,200,774,874,0,36,81.5,6.7,66.5,-1,-1,-1,614,529,-1,-1,-1,-1,-1,-1,-1,-1,-1
209.5,200,772,871,163.5,0,81.5,5.5,50,-1,-1,-1,1326,942,-1,-1,-1,-1,-1,-1,-1,-1,-1
209.5,200,761,858,163.5,0,81.5,4.31,35.8,-1,-1,-1,4204,660,-1,-1,-1,-1,-1,-1,-1,-1,-1
228,182,1100,770,0,0,228,0,43,3.88,-1,23.7,-1,-1,-1,-1,-1,-1,-1,-1,-1,-1,-1
228,182,1100,770,0,68,159,2.8,58,4.9,-1,26.8,-1,-1,-1,-1,-1,-1,-1,-1,-1,-1,-1
515.7,184.2,1040.5,445.5,221,0,0,2.3,62,-1,-1,-1,902,-1,-1,344,440,-1,500,-1,-1,-1,-1
440,198,797.5,962.5,0,110,0,8.25,45.1,-1,-1,-1,-1,-1,-1,-1,-1,-1,-1,-1,-1,-1,-1
450,175,1203,647,0,50,0,11.71,57.38,-1,-1,37,-1,-1,-1,-1,-1,-1,-1,-1,-1,-1,-1
449,142,1155,622,0,50,0,5,68,-1,-1,-1,-1,-1,-1,-1,-1,-1,-1,-1,-1,-1,-1
475,135,1050,725,0,25,0,43,75.225,-1,-1,-1,-1,-1,-1,-1,-1,-1,-1,-1,-1,-1,-1
475,150,1050,685,0,25,0,19,77.35,-1,-1,-1,-1,-1,-1,-1,-1,-1,-1,-1,-1,-1,-1
475,165,1050,690,0,25,0,12,70.55,-1,-1,-1,-1,-1,-1,-1,-1,-1,-1,-1,-1,-1,-1
441,164,1115,653,0,28,0,2.9,73.9,-1,-1,-1,-1,-1,-1,-1,-1,-1,-1,-1,-1,-1,-1
494,135.2,1146,667,0,26,0,18.2,79.05,6.38,9.8,-1,-1,-1,-1,-1,-1,-1,-1,-1,-1,-1,-1
416,135.2,1146,667,0,104,0,18.2,79.9,6.51,11.1,-1,-1,-1,-1,-1,-1,-1,-1,-1,-1,-1,-1
459,153,1122.5,653,0,51,0,17.85,67.15,6.05,9.5,-1,-1,-1,-1,-1,-1,-1,-1,-1,-1,-1,-1
382.5,153,1122.5,653,0,127.5,0,17.85,71.66,5.61,12.5,-1,-1,-1,-1,-1,-1,-1,-1,-1,-1,-1,-1
425,170,1100,640,0,75,0,17.5,64.01,5.75,9.75,-1,-1,-1,-1,-1,-1,-1,-1,-1,-1,-1,-1
465.5,186.2,1078,628,0,24.5,0,17.15,51,4.51,7.21,-1,-1,-1,-1,-1,-1,-1,-1,-1,-1,-1,-1
392,186.2,1078,628,0,98,0,17.15,58.65,5.21,9.1,-1,-1,-1,-1,-1,-1,-1,-1,-1,-1,-1,-1
456,201.6,1058,616,0,24,0,16.8,42.67,4.4,6.8,-1,-1,-1,-1,-1,-1,-1,-1,-1,-1,-1,-1
384,201.6,1058,616,0,96,0,16.8,53.13,4.54,7.48,-1,-1,-1,-1,-1,-1,-1,-1,-1,-1,-1,-1
720,231,710,730,0,80,0,33,92.91,-1,-1,51.3,-1,-1,-1,-1,-1,-1,-1,-1,-1,-1,-1
720,197,710,730,80,0,0,34,90.61,-1,-1,52.1,-1,-1,-1,-1,-1,-1,-1,-1,-1,-1,-1
275,176,504,900,275,0,0,5.5,25.5,1.98,2.7,-1,-1,-1,-1,200,300,500,497,-1,-1,-1,-1
165,163.8,1005.6,900.9,124.8,0,0,0,26.11,-1,-1,-1,-1,-1,-1,-1,-1,-1,-1,-1,-1,-1,-1
213.5,159.2,1043.6,771.9,124.8,0,0,11.7,44.61,-1,-1,-1,-1,-1,-1,-1,-1,-1,-1,-1,-1,-1,-1
310,189.9,936.2,712.2,124.8,0,0,0,40.94,-1,-1,-1,-1,-1,-1,-1,-1,-1,-1,-1,-1,-1,-1
295,185.3,1069,769.4,124.8,0,0,0,27.19,-1,-1,-1,-1,-1,-1,-1,-1,-1,-1,-1,-1,-1,-1
312.5,182.4,1040,734,124.6,0,0,0,40.08,-1,-1,-1,-1,-1,-1,-1,-1,-1,-1,-1,-1,-1,-1
148,158.4,1002,830,124.8,0,0,16,19.95,-1,-1,-1,-1,-1,-1,-1,-1,-1,-1,-1,-1,-1,-1
299.8,211.5,878.2,727.6,124.8,0,0,9.9,25.81,-1,-1,-1,-1,-1,-1,-1,-1,-1,-1,-1,-1,-1,-1
276.4,217.4,897.7,712.9,124.8,0,0,11,9.55,-1,-1,-1,-1,-1,-1,-1,-1,-1,-1,-1,-1,-1,-1
190.9,168.2,991.2,784,124.8,0,0,11.6,18.66,-1,-1,-1,-1,-1,-1,-1,-1,-1,-1,-1,-1,-1,-1
318.9,212.7,860.5,725,124.8,0,0,5.7,36.09,-1,-1,-1,-1,-1,-1,-1,-1,-1,-1,-1,-1,-1,-1
278.7,170.3,925.3,782,124.8,0,0,10.1,41.16,-1,-1,-1,-1,-1,-1,-1,-1,-1,-1,-1,-1,-1,-1
275,140,887,870,150,75,0,3,62.14,-1,-1,-1,-1,-1,-1,-1,-1,-1,-1,-1,-1,-1,-1
450,160,876,860,0,50,0,2,60.86,-1,-1,-1,-1,-1,-1,-1,-1,-1,-1,-1,-1,-1,-1
375,180,876,860,100,25,0,1,55.42,-1,-1,-1,-1,-1,-1,-1,-1,-1,-1,-1,-1,-1,-1
450,200,846,830,50,0,0,0.75,42.59,-1,-1,-1,-1,-1,-1,-1,-1,-1,-1,-1,-1,-1,-1
325,200,1050,630,100,75,0,1,40.89,-1,-1,-1,-1,-1,-1,-1,-1,-1,-1,-1,-1,-1,-1
167,185,898,636,195,0,187,7,23.89,-1,-1,-1,-1,-1,-1,-1,-1,-1,-1,-1,-1,-1,-1
178,179.9,1007.3,746.8,118.6,0,129.8,3.6,39.16,-1,-1,-1,-1,-1,-1,-1,-1,-1,-1,-1,-1,-1,-1
309.9,167.8,913.9,651.2,111.2,0,142.8,22.1,38.22,-1,-1,-1,-1,-1,-1,-1,-1,-1,-1,-1,-1,-1,-1
397,167,967,633,158,0,17.2,20.8,55.65,-1,-1,-1,-1,-1,-1,-1,-1,-1,-1,-1,-1,-1,-1
387,157,938,845,94,0,20,13.9,46.68,-1,-1,-1,-1,-1,-1,-1,-1,-1,-1,-1,-1,-1,-1
218.2,140.8,1075.7,792.7,123.8,0,54.6,11.9,55.51,-1,-1,-1,-1,-1,-1,-1,-1,-1,-1,-1,-1,-1,-1
252.1,193.8,835.5,821.4,75.6,0,97.1,8.3,33.4,-1,-1,-1,-1,-1,-1,-1,-1,-1,-1,-1,-1,-1,-1
276,180,870,768,90,0,116,9,44.28,-1,-1,-1,-1,-1,-1,-1,-1,-1,-1,-1,-1,-1,-1
136.4,171.6,922.6,764.4,125.8,0,161.6,10.4,29.07,-1,-1,-1,-1,-1,-1,-1,-1,-1,-1,-1,-1,-1,-1
144,192,814,805,133,0,170,8,29.87,-1,-1,-1,-1,-1,-1,-1,-1,-1,-1,-1,-1,-1,-1
259.9,170.6,935.7,762.9,78.4,0,100.6,10.4,49.77,-1,-1,-1,-1,-1,-1,-1,-1,-1,-1,-1,-1,-1,-1
277,190.6,946.5,665.6,91,0,116.8,7,43.58,-1,-1,-1,-1,-1,-1,-1,-1,-1,-1,-1,-1,-1,-1
491,210,882,699,123,0,26,3.9,55.55,-1,-1,-1,-1,-1,-1,-1,-1,-1,-1,-1,-1,-1,-1
173.8,172.3,1007.2,746.6,159.9,0,93.4,9.7,37.81,-1,-1,-1,-1,-1,-1,-1,-1,-1,-1,-1,-1,-1,-1
172.4,156.8,1006.3,856.4,172.4,0,13.6,4.1,33.69,-1,-1,-1,-1,-1,-1,-1,-1,-1,-1,-1,-1,-1,-1
168,121.8,1058.7,780.1,163.8,0,42.1,5.7,24.24,-1,-1,-1,-1,-1,-1,-1,-1,-1,-1,-1,-1,-1,-1
155.2,193.8,879.6,698.5,143.2,0,183.9,9.2,28.99,-1,-1,-1,-1,-1,-1,-1,-1,-1,-1,-1,-1,-1,-1
264.5,195.5,832.6,790.4,86.5,0,111,5.9,41.54,-1,-1,-1,-1,-1,-1,-1,-1,-1,-1,-1,-1,-1,-1
280,172,825,805,100,0,129,9,52.82,-1,-1,-1,-1,-1,-1,-1,-1,-1,-1,-1,-1,-1,-1
261,201,864,761,78,0,100,9,32.4,-1,-1,-1,-1,-1,-1,-1,-1,-1,-1,-1,-1,-1,-1
284,179,842,801,141,0,15,5.5,43.73,-1,-1,-1,-1,-1,-1,-1,-1,-1,-1,-1,-1,-1,-1
144,178,941,774,106,0,136,7,26.14,-1,-1,-1,-1,-1,-1,-1,-1,-1,-1,-1,-1,-1,-1
260.9,200.6,864.5,761.5,78.3,0,100.5,8.6,32.4,-1,-1,-1,-1,-1,-1,-1,-1,-1,-1,-1,-1,-1,-1
266.2,177.9,909.7,744.5,87.5,0,112.3,10.4,39.42,-1,-1,-1,-1,-1,-1,-1,-1,-1,-1,-1,-1,-1,-1
156,221,854,614,187,0,178,7,29.41,-1,-1,-1,-1,-1,-1,-1,-1,-1,-1,-1,-1,-1,-1
287.3,187.6,904.4,695.9,93.9,0,120.5,9.2,43.8,-1,-1,-1,-1,-1,-1,-1,-1,-1,-1,-1,-1,-1,-1
333,167,996,652,163,0,17.5,17.9,47.28,-1,-1,-1,-1,-1,-1,-1,-1,-1,-1,-1,-1,-1,-1
168.9,158.3,1080.8,796.2,124.3,0,42.2,10.8,31.12,-1,-1,-1,-1,-1,-1,-1,-1,-1,-1,-1,-1,-1,-1
148.5,192.7,892.4,780,108.6,0,139.4,6.1,23.7,-1,-1,-1,-1,-1,-1,-1,-1,-1,-1,-1,-1,-1,-1
182,170.2,1059.4,780.7,122,0,45.2,8.2,31.27,-1,-1,-1,-1,-1,-1,-1,-1,-1,-1,-1,-1,-1,-1
139.7,236.7,868.6,655.6,127.7,0,163.9,5.8,35.23,-1,-1,-1,-1,-1,-1,-1,-1,-1,-1,-1,-1,-1,-1
153,178,1002,689,113,0,145,8,25.56,-1,-1,-1,-1,-1,-1,-1,-1,-1,-1,-1,-1,-1,-1
265,195,833,790,86,0,111,6,41.54,-1,-1,-1,-1,-1,-1,-1,-1,-1,-1,-1,-1,-1,-1
314,179,869,690,113,0,145,8,46.23,-1,-1,-1,-1,-1,-1,-1,-1,-1,-1,-1,-1,-1,-1
144,176,1021,709,195,0,15,6,15.34,-1,-1,-1,-1,-1,-1,-1,-1,-1,-1,-1,-1,-1,-1
143,190.7,967.4,643.5,142.7,0,169.4,8.4,29.73,-1,-1,-1,-1,-1,-1,-1,-1,-1,-1,-1,-1,-1,-1
287,188,904,696,94,0,121,9,41.94,-1,-1,-1,-1,-1,-1,-1,-1,-1,-1,-1,-1,-1,-1
164,197,961,641,128,0,163,8,27.23,-1,-1,-1,-1,-1,-1,-1,-1,-1,-1,-1,-1,-1,-1
213.7,181.7,1065.8,785.4,24.5,0,98.1,6.9,45.71,-1,-1,-1,-1,-1,-1,-1,-1,-1,-1,-1,-1,-1,-1
140,200,916,753,103,0,133,7,36.44,-1,-1,-1,-1,-1,-1,-1,-1,-1,-1,-1,-1,-1,-1
522.5,172.36,722,970,0,27.5,0,8.25,49.49,-1,-1,-1,-1,-1,-1,-1,-1,-1,-1,-1,-1,-1,-1
330,181.5,722,970,192.5,27.5,0,1.21,38.34,-1,-1,-1,-1,-1,-1,-1,-1,-1,-1,-1,-1,-1,-1
350,191,578,1040,150,0,0,1.9,36.29,-1,-1,-1,-1,-1,-1,-1,-1,-1,-1,-1,-1,-1,-1
450,191,595,1072,0,0,50,2.25,38.25,-1,-1,-1,-1,-1,-1,-1,-1,-1,-1,-1,-1,-1,-1
300,191,590,1063,0,0,200,1.95,33.745,-1,-1,-1,-1,-1,-1,-1,-1,-1,-1,-1,-1,-1,-1
496,235.6,720,780,124,0,0,4,46.22,-1,-1,-1,-1,-1,-1,-1,-1,-1,-1,-1,-1,-1,-1
310,235.6,720,780,310,0,0,3.35,32.4,-1,-1,-1,-1,-1,-1,-1,-1,-1,-1,-1,-1,-1,-1
403,235.6,720,780,155,62,0,2.83,63.37,-1,-1,-1,-1,-1,-1,-1,-1,-1,-1,-1,-1,-1,-1
490,186,683,838,98,49,0,11.6,63.75,-1,-1,33,-1,-1,-1,-1,-1,-1,-1,-1,-1,-1,-1
180,180,595,908,420,0,0,0.72,38.76,-1,-1,-1,1830,-1,-1,-1,-1,-1,-1,-1,-1,-1,-1
300,180,595,958,270,30,0,2.22,63.92,-1,-1,-1,610,-1,-1,-1,-1,-1,-1,-1,-1,-1,-1
300,180,595,958,240,60,0,3.6,72.42,-1,-1,-1,500,-1,-1,-1,-1,-1,-1,-1,-1,-1,-1
257,180,621,1023,257,0,0,1.3364,50.32,-1,-1,-1,3100,-1,-1,-1,-1,-1,-1,-1,-1,-1,-1
489,180,621,1120,0,26,0,8.224,72.51,-1,-1,-1,1100,-1,-1,-1,-1,-1,-1,-1,-1,-1,-1
206,180,621,1001,283,26,0,1.6448,48.79,-1,-1,-1,1450,-1,-1,-1,-1,-1,-1,-1,-1,-1,-1
206,180,621,1001,257,51,0,2.57,54.99,-1,-1,-1,750,-1,-1,-1,-1,-1,-1,-1,-1,-1,-1
180,180,640,1053,270,0,0,0.945,30.35,-1,-1,-1,3200,-1,-1,-1,-1,-1,-1,-1,-1,-1,-1
405,180,640,1147,0,45,0,9.45,67.15,-1,-1,-1,750,-1,-1,-1,-1,-1,-1,-1,-1,-1,-1
135,180,640,1034,293,23,0,1.26,23.97,-1,-1,-1,2080,-1,-1,-1,-1,-1,-1,-1,-1,-1,-1
135,180,640,1034,270,45,0,2.07,28.14,-1,-1,-1,1570,-1,-1,-1,-1,-1,-1,-1,-1,-1,-1
425,175,681,948,0,75,0,10,74.8,-1,-1,-1,-1,-1,-1,-1,-1,-1,-1,-1,-1,-1,-1
225,175,652,908,275,0,0,7.5,35.7,-1,-1,-1,-1,-1,-1,-1,-1,-1,-1,-1,-1,-1,-1
415,233.3,590,910,135,0,0,9.91,26.75,1.83,-1,-1,-1,594,-1,-1,-1,-1,-1,-1,-1,-1,-1
440,176,917,714,110,0,0,7.43,59.33,-1,-1,-1,-1,-1,-1,205,360,-1,-1,-1,-1,-1,-1
440,176,931,725,0,0,110,10.43,63.83,-1,-1,-1,-1,-1,-1,250,410,-1,-1,-1,-1,-1,-1
522.5,176,930,724,0,27.5,0,9.56,68.34,-1,-1,-1,-1,-1,-1,248,401,-1,-1,-1,-1,-1,-1
440,176,916,713,82.5,27.5,0,8.22,67.32,-1,-1,-1,-1,-1,-1,297,425,-1,-1,-1,-1,-1,-1
440,176,927,721,0,27.5,82.5,9.78,67.66,-1,-1,-1,-1,-1,-1,275,410,-1,-1,-1,-1,-1,-1
440,176,924,720,55,0,55,8,65.45,-1,-1,-1,-1,-1,-1,-1,400,-1,-1,-1,-1,-1,-1
440,176,924,720,41.25,27.5,41.25,8,66.81,-1,-1,-1,-1,-1,-1,275,390,-1,-1,-1,-1,-1,-1
270,198,842,801,180,0,0,2.96,37.99,-1,-1,-1,-1,-1,-1,198,368,-1,-1,-1,-1,-1,-1
270,198,863,821,0,0,180,3.44,49.3,-1,-1,-1,-1,-1,-1,221,356,-1,-1,-1,-1,-1,-1
405,198,861,819,0,45,0,5.2,49.72,-1,-1,-1,-1,-1,-1,221,425,-1,-1,-1,-1,-1,-1
270,198,841,801,135,45,0,4.52,39.86,-1,-1,-1,-1,-1,-1,178,-1,-1,-1,-1,-1,-1,-1
270,198,857,816,0,45,135,4.56,49.55,-1,-1,-1,-1,-1,-1,200,-1,-1,-1,-1,-1,-1,-1
270,198,852,811,90,0,90,3.2,45.56,-1,-1,-1,-1,-1,-1,-1,-1,-1,-1,-1,-1,-1,-1
270,198,849,808,67.5,45,67.5,4.24,46.49,-1,-1,-1,-1,-1,-1,173,396,-1,-1,-1,-1,-1,-1
270,198,842,801,180,0,0,2.9,60.3,-1,-1,-1,-1,1083,-1,197,354,-1,-1,-1,-1,-1,-1
270,198,863,821,0,0,180,3.4,74.9,-1,-1,-1,-1,403,-1,205,398,-1,-1,-1,-1,-1,-1
405,198,861,819,0,45,0,5.2,76.1,-1,-1,-1,-1,796,-1,205,420,-1,-1,-1,-1,-1,-1
270,198,841,801,135,45,0,4.5,57.6,-1,-1,-1,-1,585,-1,177,-1,-1,-1,-1,-1,-1,-1
270,198,857,816,0,45,135,4.6,68.2,-1,-1,-1,-1,408,-1,199,-1,-1,-1,-1,-1,-1,-1
270,198,853,811,90,0,90,3.2,69.2,-1,-1,-1,-1,682,-1,200,-1,-1,-1,-1,-1,-1,-1
270,198,849,808,67.5,45,67.5,4.2,66.8,-1,-1,-1,-1,463,-1,202,390,-1,-1,-1,-1,-1,-1
360,165,735,837,240,0,0,19.98,49,3.73,-1,32,-1,-1,-1,-1,-1,-1,-1,-1,-1,-1,-1
360,165,734,835,180,60,0,22.02,79.5,5.28,-1,39,-1,-1,-1,-1,-1,-1,-1,-1,-1,-1,-1
180,165,701,804,360,60,0,18,53.5,4.9,-1,30,-1,-1,-1,-1,-1,-1,-1,-1,-1,-1,-1
420,168,1082,663,0,21,0,4.2,61.18,-1,-1,31.759,-1,-1,-1,-1,-1,-1,-1,-1,-1,-1,-1
450,129.6,1002,614,0,0,90,3.6,70.96,-1,-1,41.963,-1,-1,-1,-1,-1,-1,-1,-1,-1,-1,-1
324,180,945,791,36,0,0,0,32.6,-1,-1,-1,-1,-1,-1,188,210,600,660,298,650,765,-1
324,180,945,802,0,0,36,0,36.8,-1,-1,-1,-1,-1,-1,200,279,800,850,-1,-1,-1,-1
175,210,952,883,0,0,175,0,43.605,-1,-1,-1,703,372,-1,-1,-1,-1,-1,-1,-1,-1,-1
222,168,945,876,0,0,222,4.5,76.415,-1,-1,-1,395,206,-1,-1,-1,-1,-1,-1,-1,-1,-1
231,119,1047,852,156,0,0,3.2,55.3,-1,-1,-1,-1,-1,-1,-1,-1,-1,-1,-1,-1,-1,1.18
229,115,1040,827,154,0,0,2.8,44.6,-1,-1,-1,-1,-1,-1,-1,-1,-1,-1,-1,-1,-1,1.97
229,113,1032,844,254,0,0,2.1,46.3,-1,-1,-1,-1,-1,-1,-1,-1,-1,-1,-1,-1,-1,1.68
120,112,1200,600,280,0,0,5.6,28.26,2.53,3.81,-1,-1,-1,-1,144,231,350,-1,-1,-1,-1,-1
200,120,1200,600,200,0,0,0,56.57,4.2,6.11,-1,-1,-1,-1,113,169,256,-1,-1,-1,-1,-1
200,132,1200,600,200,0,0,5.6,53.97,4.46,6.33,-1,-1,-1,-1,-1,-1,-1,-1,-1,-1,-1,-1
120,160,1200,600,280,0,0,0,19.5,2.04,3.43,-1,-1,-1,-1,-1,-1,-1,-1,-1,-1,-1,-1
320,160,1270,564,80,0,0,0,32.04,-1,4.32,-1,-1,-1,-1,-1,780,-1,-1,-1,-1,-1,-1
200,160,1270,533,200,0,0,0,24.65,-1,3.82,-1,-1,-1,-1,-1,597,-1,-1,-1,-1,-1,-1
280,136,1270,618,120,0,0,2,48.96,-1,4.81,-1,-1,-1,-1,-1,550,-1,-1,-1,-1,-1,-1
160,136,1270,586,240,0,0,2,28.05,-1,4.19,-1,-1,-1,-1,-1,340,-1,-1,-1,-1,-1,-1
240,120,1270,650,160,0,0,2,54.4,-1,5.47,-1,-1,-1,-1,-1,387,-1,-1,-1,-1,-1,-1
423,159.8,1056,704,47,0,0,0,46.32,-1,-1,-1,-1,-1,-1,240,350,449,467,-1,-1,-1,-1
282,159.8,1056,704,188,0,0,0,44.7,-1,-1,-1,-1,-1,-1,290,278,350,365,-1,-1,-1,-1
282,140.76,1056,704,132,0,56,0,46.15,-1,-1,-1,-1,-1,-1,178,258,327,340,-1,-1,-1,-1
382,140,1048,864,0,8,0,8.58,59.32,-1,-1,-1,-1,-1,-1,-1,-1,-1,-1,-1,-1,-1,-1
420,140,1021,842,0,18,0,9.636,62.03,-1,-1,-1,-1,-1,-1,-1,-1,-1,-1,-1,-1,-1,-1
336,140,1065,878,0,14,0,7.7,58.19,-1,-1,-1,-1,-1,-1,-1,-1,-1,-1,-1,-1,-1,-1
347,140,1053,868,0,23,0,8.14,59,-1,-1,-1,-1,-1,-1,-1,-1,-1,-1,-1,-1,-1,-1
358,140,1040,858,0,32,0,8.58,60.03,-1,-1,-1,-1,-1,-1,-1,-1,-1,-1,-1,-1,-1,-1
394,140,1012,834,0,44,0,9.636,62.54,-1,-1,-1,-1,-1,-1,-1,-1,-1,-1,-1,-1,-1,-1
315,140,1058,872,0,35,0,7.7,58.79,-1,-1,-1,-1,-1,-1,-1,-1,-1,-1,-1,-1,-1,-1
367,159.71,1043,860,0,76.6389,0,9.76006,67.49,-1,-1,-1,-1,-1,-1,-1,-1,-1,-1,-1,-1,-1,-1
424,204,785,908,51,39,0,10.28,35.7,3.73,5.22,27,748,-1,-1,-1,-1,-1,-1,-1,-1,-1,-1
398,204,785,908,77,39,0,10.28,35.7,4,6,28,678,-1,-1,-1,-1,-1,-1,-1,-1,-1,-1
373,204,785,908,103,39,0,10.3,36.21,4.25,7,30.9,560,-1,-1,-1,-1,-1,-1,-1,-1,-1,-1
347,204,785,908,129,39,0,10.3,34.09,3.82,5.2,27,450,-1,-1,-1,-1,-1,-1,-1,-1,-1,-1
321,204,785,908,154,39,0,10.28,27.2,2.95,4.75,25.9,400,-1,-1,-1,-1,-1,-1,-1,-1,-1,-1
250,125,1093,728.7,125,0,125,11,51.17,5.18,7.84,33.96,1435,-1,-1,-1,-1,-1,-1,-1,-1,-1,-1
125,125,1075.2,716.8,187.5,0,187.5,11,46.66,4.83,7.2,32.41,1440,-1,-1,-1,-1,-1,-1,-1,-1,-1,-1
635,247,565,847,0,71,0,2.54,62.22,-1,10,-1,-1,-1,-1,400,480,526,-1,-1,-1,-1,-1
635,247,565,847,0,71,0,2.54,55,-1,9.15,-1,-1,-1,-1,481,623,678,-1,-1,-1,-1,-1
433.5,153,1122.5,653,76.5,0,0,15.3,46.75,-1,6.75,-1,-1,-1,-1,-1,-1,-1,-1,-1,-1,-1,-1
475,170,1100,640,25,0,0,15,42.24,-1,6.75,-1,-1,-1,-1,-1,-1,-1,-1,-1,-1,-1,-1
400,170,1100,640,100,0,0,15,38.33,-1,6.22,-1,-1,-1,-1,-1,-1,-1,-1,-1,-1,-1,-1
441,186.2,1078,628,49,0,0,14.7,34,-1,6,-1,-1,-1,-1,-1,-1,-1,-1,-1,-1,-1,-1
367.5,186.2,1078,628,122.5,0,0,14.7,29.72,-1,5.2,-1,-1,-1,-1,-1,-1,-1,-1,-1,-1,-1,-1
432,201.6,1058,616,48,0,0,14.4,31.87,-1,4.74,-1,-1,-1,-1,-1,-1,-1,-1,-1,-1,-1,-1
360,201.6,1058,616,120,0,0,14.4,26.56,-1,4.4,-1,-1,-1,-1,-1,-1,-1,-1,-1,-1,-1,-1
322,161,1085.2,693.81,138,0,0,1.104,51,4.5,-1,27.9,-1,-1,-1,160,310,-1,-1,-1,-1,-1,-1
322,161,1085.2,693.81,0,0,138,1.104,52.95,4.58,-1,28.25,-1,-1,-1,175,325,-1,-1,-1,-1,-1,-1
300,191,862,761,169,0,0,4.2,30.09,2.91,3.52,-1,-1,-1,-1,-1,-1,-1,-1,-1,-1,-1,-1
300,194,825,761,158,0,0,4.3,25.75,1.45,2.89,-1,-1,-1,-1,-1,-1,-1,-1,-1,-1,-1,-1
160,180,1107,665,0,0,240,0,25.619,-1,-1,-1,-1,-1,-1,86,148,236,258,345,445,405,-1
140,175,1132,680,0,0,210,0,22.8395,-1,-1,-1,-1,-1,-1,93,158,250,275,500,680,600,-1
128,176,1145,688,0,0,192,0,16.1245,-1,-1,-1,-1,-1,-1,101,186,295,325,580,793,755,-1
262.5,175,1025,832,0,0,87.5,3.5,35.36,2.71,-1,-1,1099,-1,732,-1,-1,-1,-1,-1,-1,-1,-1
400,210,700.4,891.5,0,100,0,1.3,57.04,-1,7.2,-1,-1,-1,-1,-1,-1,-1,-1,-1,-1,-1,-1
450,210,706.3,898.6,0,50,0,1.7,60.57,-1,7.07,-1,-1,-1,-1,-1,-1,-1,-1,-1,-1,-1,-1
385,192.5,834.8,797.1,0,0,165,7.43,52.95,-1,-1,-1,-1,-1,-1,-1,-1,-1,-1,-1,-1,-1,-1
333,173,924,743,162,0,0,3.71,49.72,4.2,-1,44,-1,-1,-1,-1,-1,-1,-1,-1,-1,-1,-1
375,195,735,910,125,0,0,6.75,42.5,-1,-1,-1,-1,-1,-1,-1,-1,-1,-1,-1,-1,-1,-1
300,190,735,910,200,0,0,6.75,38.25,-1,-1,-1,-1,-1,-1,-1,-1,-1,-1,-1,-1,-1,-1
382.5,180,735,990,0,67.5,0,8,56.95,-1,-1,-1,-1,-1,-1,-1,-1,-1,-1,-1,-1,-1,-1
297.5,104.125,1035,740,0,52.5,0,6.3,53.77,-1,-1,-1,-1,-1,-1,-1,-1,-1,-1,-1,-1,-1,-1
297,103.95,1035,740,0,0,52.5,6.3,42.82,-1,-1,-1,-1,-1,-1,-1,-1,-1,-1,-1,-1,-1,-1
297.5,104.125,1035,740,0,26.25,26.25,6.3,55.02,-1,-1,-1,-1,-1,-1,-1,-1,-1,-1,-1,-1,-1,-1
412,145,1143.86,652,0,73,0,7.21,102.68,-1,-1,-1,-1,-1,-1,-1,-1,-1,-1,-1,-1,-1,-1
206,145,1113.56,657,0,36,243,5.15,89.93,-1,-1,-1,-1,-1,-1,-1,-1,-1,-1,-1,-1,-1,-1
352,145,1143.86,652,97,36,0,6.16,80.155,-1,-1,-1,-1,-1,-1,-1,-1,-1,-1,-1,-1,-1,-1
350,153,966,706,100,0,0,9.5,48.96,-1,-1,37,-1,-1,-1,-1,-1,-1,-1,-1,-1,-1,-1
350,140,1109,720,100,0,0,10.8,46.32,-1,-1,53.5,-1,-1,-1,-1,-1,-1,-1,-1,-1,-1,-1
350,180,1043,678,100,0,0,6.8,44.2,-1,-1,15.7,-1,-1,-1,-1,-1,-1,-1,-1,-1,-1,-1
350,167,963,692,100,0,0,8.1,35.7,-1,-1,23,-1,-1,-1,-1,-1,-1,-1,-1,-1,-1,-1
440,209,708.7,748,110,0,0,9.35,47.26,3,-1,-1,-1,-1,-1,-1,-1,-1,-1,-1,-1,-1,-1
440,209,635.5,748,110,0,0,9.35,42.5,2.86,-1,-1,-1,-1,-1,-1,-1,-1,-1,-1,-1,-1,-1
200,90,1014,774,0,0,200,1.4,57.8,-1,-1,-1,1049,-1,-1,-1,-1,-1,-1,-1,-1,-1,-1
253.6,190,1396,698,47.55,15.85,0,0,15.68,-1,-1,-1,-1,-1,-1,-1,-1,-1,-1,-1,-1,-1,-1
237.75,190,1396,698,31.7,47.55,0,0,16.97,-1,-1,-1,-1,-1,-1,-1,-1,-1,-1,-1,-1,-1,-1
253.6,190,1396,698,47.55,15.85,0,0,16.03,-1,-1,-1,-1,-1,-1,-1,-1,-1,-1,-1,-1,-1,-1
237.75,190,1396,698,31.7,47.55,0,0,17.95,-1,2.18,-1,-1,-1,-1,-1,-1,-1,-1,-1,-1,-1,-1
368.9,158,1029,686,158.1,0,0,10.54,46.92,-1,-1,-1,-1,-1,-1,-1,-1,-1,-1,-1,-1,-1,-1
474.3,158,1029,686,0,52.7,0,10.54,76.67,-1,-1,-1,-1,-1,-1,-1,-1,-1,-1,-1,-1,-1,-1
379.44,158,1029,686,105.4,42.16,0,10.54,61.28,-1,-1,-1,-1,-1,-1,-1,-1,-1,-1,-1,-1,-1,-1
280,160,1104,736,0,0,120,2,19.975,2,5.2,-1,-1,-1,-1,-1,-1,-1,-1,-1,-1,-1,-1
80,163,1184,684,0,0,320,2.85,34.8,-1,-1,-1,-1,-1,-1,-1,405,540,558,-1,-1,-1,-1
304.56,160,1270,605,84.6,33.84,169.2,3.6,49.946,4.27,5.3,-1,-1,-1,-1,-1,-1,-1,-1,-1,-1,-1,-1
262.26,160,1270,605,126.9,33.84,169.2,3.6,43.894,3.95,5,-1,-1,-1,-1,-1,-1,-1,-1,-1,-1,-1,-1
219.96,160,1270,605,169.2,33.84,169.2,3.6,40.596,3.19,4.8,-1,-1,-1,-1,-1,-1,-1,-1,-1,-1,-1,-1
360,184.5,1201.5,612,90,0,0,2.25,32.72,2.5,4.27,-1,-1,-1,-1,-1,-1,-1,-1,-1,-1,-1,-1
360,184.5,1201.5,306,90,0,306,7.56,27.71,2.52,4.48,-1,-1,-1,-1,-1,-1,-1,-1,-1,-1,-1,-1
409.5,155.61,874,874,0,10.5,0,2.016,61.61,-1,-1,-1,3200,2400,1990,-1,-1,-1,-1,-1,-1,-1,-1
378,143.64,869,869,0,42,0,2.016,68,-1,-1,-1,1100,740,400,-1,-1,-1,-1,-1,-1,-1,-1
210,79.8,866,866,0,0,210,2.016,34,-1,-1,-1,5100,2000,1200,-1,-1,-1,-1,-1,-1,-1,-1
325.5,123.69,868,868,0,31.5,63,2.016,57.8,-1,-1,-1,2285,800,800,-1,-1,-1,-1,-1,-1,-1,-1
262.5,99.75,865,865,0,31.5,126,2.016,48.11,-1,-1,-1,2100,900,580,-1,-1,-1,-1,-1,-1,-1,-1
178.5,67.83,861,861,0,31.5,210,2.016,33.66,-1,-1,-1,1990,988,300,-1,-1,-1,-1,-1,-1,-1,-1
127,127,1115,770,127,0,32,2.288,35.8,3.5,-1,-1,4850,3800,-1,-1,-1,-1,-1,-1,-1,-1,-1
78,128,1115,770,127,0,78,2.264,39.2,3.91,-1,-1,3430,2800,-1,-1,-1,-1,-1,-1,-1,-1,-1
124,122,1115,770,127,0,53,2.432,37.4,3.68,-1,-1,3980,2830,-1,-1,-1,-1,-1,-1,-1,-1,-1
320,152,1097,731.2,80,0,0,0,36.55,5.35,8.35,-1,-1,-1,-1,-1,-1,-1,-1,-1,-1,-1,-1
320,152,1097,731.2,0,0,80,0,51.85,4.41,9,45.62,-1,-1,-1,-1,-1,-1,-1,-1,-1,-1,-1
260,152,1097,731.2,80,0,60,0,42.5,4.15,8,45.77,-1,-1,-1,-1,-1,-1,-1,-1,-1,-1,-1
247.76,179,1109,675,65.2,13.04,0,0,27.2,-1,-1,-1,-1,-1,-1,-1,-1,-1,-1,-1,-1,-1,-1
504.84,185.45,797.49,886.58,0,10.3028,0,11.3331,59.39,-1,-1,-1,-1,-1,-1,-1,-1,-1,-1,-1,-1,-1,-1
473.93,185.45,792.97,881.55,0,41.2112,0,11.3331,61.95,-1,-1,-1,-1,-1,-1,-1,-1,-1,-1,-1,-1,-1,-1
489.38,185.45,774.62,861.15,15.4542,10.3028,0,11.333,51.66,-1,-1,-1,-1,-1,-1,-1,-1,-1,-1,-1,-1,-1,-1
458.47,185.45,770.09,856.12,15.4542,41.2112,0,11.333,54.87,-1,-1,-1,-1,-1,-1,-1,-1,-1,-1,-1,-1,-1,-1
473.93,185.45,751.74,835.72,30.9084,10.3028,0,11.3331,53.33,-1,-1,-1,-1,-1,-1,-1,-1,-1,-1,-1,-1,-1,-1
443.02,185.45,747.22,830.69,30.9084,41.2112,0,11.3331,55.16,-1,-1,-1,-1,-1,-1,-1,-1,-1,-1,-1,-1,-1,-1
419.84,185.45,745.3,828.56,84.9981,10.3028,0,11.3331,54,-1,-1,-1,-1,-1,-1,-1,-1,-1,-1,-1,-1,-1,-1
388.93,185.45,740.78,823.53,84.9981,41.2112,0,11.3331,56.43,-1,-1,-1,-1,-1,-1,-1,-1,-1,-1,-1,-1,-1,-1
391.51,185.45,727.9,809.22,113.3308,10.3028,0,11.3332,54.19,-1,-1,-1,-1,-1,-1,-1,-1,-1,-1,-1,-1,-1,-1
360.6,185.45,723.38,804.19,113.3308,41.2112,0,11.3331,56.77,-1,-1,-1,-1,-1,-1,-1,-1,-1,-1,-1,-1,-1,-1
363.17,185.45,710.51,789.88,141.6635,10.3028,0,11.333,55.04,-1,-1,-1,-1,-1,-1,-1,-1,-1,-1,-1,-1,-1,-1
332.27,185.45,705.99,784.85,141.6635,41.2112,0,11.3332,58.72,-1,-1,-1,-1,-1,-1,-1,-1,-1,-1,-1,-1,-1,-1
334.84,185.45,693.11,770.54,169.9962,10.3028,0,11.3331,52.88,-1,-1,-1,-1,-1,-1,-1,-1,-1,-1,-1,-1,-1,-1
303.93,185.45,688.59,765.51,169.9962,41.2112,0,11.333,56.36,-1,-1,-1,-1,-1,-1,-1,-1,-1,-1,-1,-1,-1,-1
306.51,185.45,675.71,751.2,198.3289,10.3028,0,11.3331,51.41,-1,-1,-1,-1,-1,-1,-1,-1,-1,-1,-1,-1,-1,-1
275.6,185.45,671.19,746.17,198.3289,41.2112,0,11.3331,52.89,-1,-1,-1,-1,-1,-1,-1,-1,-1,-1,-1,-1,-1,-1
278.18,185.45,658.32,731.86,226.6616,10.3028,0,11.3332,50.12,-1,-1,-1,-1,-1,-1,-1,-1,-1,-1,-1,-1,-1,-1
247.27,185.45,653.8,726.83,226.6616,41.2112,0,11.3331,51.71,-1,-1,-1,-1,-1,-1,-1,-1,-1,-1,-1,-1,-1,-1
221.51,185.45,623.52,693.18,283.327,10.3028,0,11.3331,46.1,-1,-1,-1,-1,-1,-1,-1,-1,-1,-1,-1,-1,-1,-1
190.6,185.45,619,688.15,283.327,41.2112,0,11.333,47.74,-1,-1,-1,-1,-1,-1,-1,-1,-1,-1,-1,-1,-1,-1
248,226.24,806,853,248,0,0,5,22.81,-1,-1,27.89,-1,-1,-1,-1,340,475,495,277.64,-1,-1,-1
124,210.12,812,853,186,0,186,5,24.46,-1,-1,31.27,-1,-1,-1,-1,298,427,450,216.28,-1,-1,-1
124,226.24,806,853,159,53,159,5,29.13,-1,-1,31.8,-1,-1,-1,-1,470,600,655,258.43,-1,-1,-1
354,155,1048,708,0,133,0,0,53.55,-1,-1,-1,-1,-1,-1,-1,-1,-1,-1,-1,-1,-1,-1
311,155,1056,704,44,44,44,0,51.85,-1,-1,-1,-1,-1,-1,-1,-1,-1,-1,-1,-1,-1,-1
395.2,158,1151,647,98.8,0,0,4.94,53.72,5.71,-1,-1,-1,-1,-1,-1,-1,-1,-1,-1,-1,-1,-1
464.4,158,1151,647,0,29.6,0,4.94,54.99,5.76,-1,-1,-1,-1,-1,-1,-1,-1,-1,-1,-1,-1,-1
405.1,158,1151,647,74.1,14.8,0,4.94,54.99,5.62,-1,-1,-1,-1,-1,-1,-1,-1,-1,-1,-1,-1,-1
360.6,158,1151,647,74.1,59.3,0,4.94,64.43,6.36,-1,-1,-1,-1,-1,-1,-1,-1,-1,-1,-1,-1,-1
178.125,190,732.7,950.1,47.5,11.875,237.5,1.1875,35.3,-1,-1,-1,-1,-1,-1,-1,-1,-1,-1,-1,-1,-1,-1
154.375,190,730.4,947.1,71.25,11.875,237.5,1.1875,34.8,-1,-1,-1,-1,-1,-1,-1,-1,-1,-1,-1,-1,-1,-1
130.625,190,725.2,940.4,95,11.875,237.5,1.1875,33.8,-1,-1,-1,-1,-1,-1,-1,-1,-1,-1,-1,-1,-1,-1
166.25,190,730.1,946.8,47.5,23.75,237.5,1.425,35,-1,-1,-1,-1,-1,-1,-1,-1,-1,-1,-1,-1,-1,-1
142.5,190,726.3,941.9,71.25,23.75,237.5,1.425,32.7,-1,-1,-1,-1,-1,-1,-1,-1,-1,-1,-1,-1,-1,-1
118.75,190,722.7,937.1,95,23.75,237.5,1.425,31.1,-1,-1,-1,-1,-1,-1,-1,-1,-1,-1,-1,-1,-1,-1
154.375,190,728.1,944.23,47.5,35.625,237.5,1.6625,34.5,-1,-1,-1,-1,-1,-1,-1,-1,-1,-1,-1,-1,-1,-1
130.625,190,724.3,939.2,71.25,35.625,237.5,1.6625,32.9,-1,-1,-1,-1,-1,-1,-1,-1,-1,-1,-1,-1,-1,-1
106.875,190,720.5,934.3,95,35.625,237.5,1.6625,33.1,-1,-1,-1,-1,-1,-1,-1,-1,-1,-1,-1,-1,-1,-1
225.625,190,752.5,937.1,47.5,11.875,190,1.1875,30.89,3.18,6.89,-1,255,-1,-1,-1,-1,-1,-1,-1,-1,-1,-1
130.625,190,742.9,925.1,95,11.875,237.5,1.425,24.5,2.39,5.63,-1,400,-1,-1,-1,-1,-1,-1,-1,-1,-1,-1
273.125,190,697.1,921.6,47.5,11.875,142.5,1.1875,35.52,3.47,7.28,-1,428,-1,-1,-1,-1,-1,-1,-1,-1,-1,-1
154.375,190,690.4,912.7,71.25,11.875,237.5,1.425,31.3,2.8,6.15,-1,341,-1,-1,-1,-1,-1,-1,-1,-1,-1,-1
118.75,180.5,686.4,907.4,71.25,23.75,237.5,1.579375,25.15,2.48,5.66,-1,300,-1,-1,-1,-1,-1,-1,-1,-1,-1,-1
135.5,208.36,739,819,162.6,81.3,162.6,8.13,27.37,-1,-1,32.31,-1,-1,-1,190,290,500,515,312.17,674.69,841.44,-1
138,200.7,1048,660,92,46,184,1.84,42.2,3.05,4.78,29,-1,-1,-1,-1,-1,-1,-1,-1,-1,-1,-1
138,205.3,1007,635,92,46,184,1.84,31,2.78,4.27,22,-1,-1,-1,-1,-1,-1,-1,-1,-1,-1,-1
400.7,200.4,856.5,756.4,100.2,0,0,2.8,46.57,-1,-1,30.67,-1,-1,-1,-1,-1,-1,-1,-1,-1,-1,-1
411.9,274.6,782.7,691.1,45.8,0,0,0,28.16,-1,-1,25.23,-1,-1,-1,-1,-1,-1,-1,-1,-1,-1,-1
224.1,269,766.6,676.9,224.1,0,0,0,18.64,-1,-1,19.99,-1,-1,-1,-1,-1,-1,-1,-1,-1,-1,-1
248,173.46,1172,781,165,0,0,1.45,36.55,3.42,4.65,34.4,-1,-1,-1,-1,-1,-1,-1,-1,-1,-1,-1
267,186.9,1307,637,178,0,0,1.11,34.85,3.3,4.5,33.75,-1,-1,-1,-1,-1,-1,-1,-1,-1,-1,-1
372.33,186.16,948.54,636.97,93.08,0,0,2.34,46.4,-1,-1,-1,-1,-1,-1,-1,-1,-1,-1,-1,-1,-1,-1
360,220,682,1250,0,40,0,4.8,27.0725,-1,-1,-1,-1,-1,-1,-1,-1,-1,-1,-1,-1,-1,-1
340,121,1263,774,51,10.2,0,4.2,78.2,-1,-1,-1,-1,-1,-1,-1,-1,-1,-1,-1,-1,-1,-1
286,168,820,807,188,0,0,1.69,83.5,-1,-1,-1,-1,-1,-1,-1,-1,-1,-1,-1,-1,-1,-1
379.2,168,820,807,94.8,0,0,1.69,84.2,-1,-1,-1,-1,-1,-1,-1,-1,-1,-1,-1,-1,-1,-1
94.8,168,820,807,379.2,0,0,1.69,32,-1,-1,-1,-1,-1,-1,-1,-1,-1,-1,-1,-1,-1,-1
189.6,168,820,807,0,0,284.4,1.69,66.4,-1,-1,-1,-1,-1,-1,-1,-1,-1,-1,-1,-1,-1,-1
284.4,168,820,807,0,0,189.6,1.69,83.5,-1,-1,-1,-1,-1,-1,-1,-1,-1,-1,-1,-1,-1,-1
332,92.96,1504,75.2,0,17.5,0,4.375,27.2,2,5.8,-1,-1,-1,-1,-1,-1,-1,-1,-1,-1,-1,-1
345,134.4,1434,154,38,0,0,0,13.77,3.72,0.89,-1,-1,-1,-1,-1,-1,-1,-1,-1,-1,-1,3.2
269,134.4,1434,154,38,38,0,0,15.725,4.72,1.87,-1,-1,-1,-1,-1,-1,-1,-1,-1,-1,-1,3.2
357,178.5,915,865,0,0,153,4.5,46.5,3.85,-1,29.8,-1,-1,-1,-1,-1,-1,-1,-1,-1,-1,-1
271,205.13,787,834,108.4,54.2,108.4,8.13,38.641,-1,4.84,38.6,-1,-1,-1,-1,-1,-1,-1,-1,-1,-1,-1
666,152,1103,523,0,0,74,8.88,76.67,5.66,6.22,-1,515,-1,-1,-1,-1,-1,-1,-1,-1,-1,-1
444,152,1094,519,0,0,296,8.88,86.037,6.65,7.49,-1,445,-1,-1,-1,-1,-1,-1,-1,-1,-1,-1
681,152,1092,518,0,59,0,8.88,103.598,7.02,7.61,-1,432,-1,-1,-1,-1,-1,-1,-1,-1,-1,-1
629,151,1075,510,0,111,0,8.88,113.5005,7.87,10.96,-1,290,-1,-1,-1,-1,-1,-1,-1,-1,-1,-1
503,151,1075,510,0,89,148,8.88,117.64,7.94,12.15,-1,325,-1,-1,-1,-1,-1,-1,-1,-1,-1,-1
281,151,1066,506,0,89,370,8.88,121.7625,8.15,13.18,-1,246,-1,-1,-1,-1,-1,-1,-1,-1,-1,-1
227.5,140,1314.2,744.3,87.5,35,0,3.5,32.1725,4.13,-1,-1,-1,-1,-1,-1,-1,-1,-1,-1,-1,-1,-1
227.5,140,1314.2,744.3,70,52.5,0,3.5,29.8095,4.19,-1,-1,-1,-1,-1,-1,-1,-1,-1,-1,-1,-1,-1
227.5,140,1314.2,744.3,0,87.5,35,3.5,29.631,3.86,-1,-1,-1,-1,-1,-1,-1,-1,-1,-1,-1,-1,-1
227.5,140,1314.2,744.3,70,52.5,0,3.5,28.8405,3.79,-1,-1,-1,-1,-1,-1,-1,-1,-1,-1,-1,-1,-1
484.2,185.5,794.5,883.2,0,30.906,0,11.3323,60.9025,4.99,-1,-1,1030,-1,-1,-1,-1,-1,-1,-1,-1,-1,-1
499.7,185.5,776.1,862.8,15.453,0,0,11.3334,44.625,4,-1,-1,1330,-1,-1,-1,-1,-1,-1,-1,-1,-1,-1
468.8,185.5,771.6,857.8,15.453,30.906,0,11.3335,54.298,-1,-1,-1,-1,-1,-1,-1,-1,-1,-1,-1,-1,-1,-1
484.2,185.5,753.2,837.4,30.906,0,0,11.3323,44.88,4.07,-1,-1,1300,-1,-1,-1,-1,-1,-1,-1,-1,-1,-1
453.3,185.5,748.7,832.4,30.906,30.906,0,11.3325,54.5615,-1,-1,-1,-1,-1,-1,-1,-1,-1,-1,-1,-1,-1,-1
430.1,185.5,746.8,830.2,84.9915,0,0,11.332,46.546,4.2,-1,-1,1275,-1,-1,-1,-1,-1,-1,-1,-1,-1,-1
399.2,185.5,742.3,825.2,84.9915,30.906,0,11.3321,55.981,-1,-1,-1,-1,-1,-1,-1,-1,-1,-1,-1,-1,-1,-1
401.8,185.5,729.4,810.9,113.322,0,0,11.3327,45.475,4.25,-1,-1,1210,-1,-1,-1,-1,-1,-1,-1,-1,-1,-1
370.9,185.5,724.9,805.9,113.322,30.906,0,11.3328,56.0405,-1,-1,-1,-1,-1,-1,-1,-1,-1,-1,-1,-1,-1,-1
373.5,185.5,712,791.6,141.6525,0,0,11.3334,44.455,4.2,-1,-1,1200,-1,-1,-1,-1,-1,-1,-1,-1,-1,-1
342.6,185.5,707.5,786.5,141.6525,30.906,0,11.3335,58.3525,-1,-1,-1,-1,-1,-1,-1,-1,-1,-1,-1,-1,-1,-1
345.1,185.5,694.6,772.2,169.983,0,0,11.3318,44.115,4.19,-1,-1,1198,-1,-1,-1,-1,-1,-1,-1,-1,-1,-1
314.2,185.5,690.1,767.2,169.983,30.906,0,11.332,56.0575,-1,-1,-1,-1,-1,-1,-1,-1,-1,-1,-1,-1,-1,-1
316.8,185.5,677.2,752.9,198.3135,0,0,11.3325,43.5455,4.03,-1,-1,1185,-1,-1,-1,-1,-1,-1,-1,-1,-1,-1
285.9,185.5,672.7,747.8,198.3135,30.906,0,11.3326,52.4195,-1,-1,-1,-1,-1,-1,-1,-1,-1,-1,-1,-1,-1,-1
288.5,185.5,659.8,733.5,226.644,0,0,11.3332,43.01,3.98,-1,-1,1151,-1,-1,-1,-1,-1,-1,-1,-1,-1,-1
257.6,185.5,655.3,728.5,226.644,30.906,0,11.3333,51.187,-1,-1,-1,-1,-1,-1,-1,-1,-1,-1,-1,-1,-1,-1
231.8,185.5,625,694.9,283.305,0,0,11.33231,39.7715,3.8,-1,-1,1150,-1,-1,-1,-1,-1,-1,-1,-1,-1,-1
200.9,185.5,620.5,689.8,283.305,30.906,0,11.3324,47.192,-1,-1,-1,-1,-1,-1,-1,-1,-1,-1,-1,-1,-1,-1
273.175,190,754,939,47.5,11.875,142.5,1.1875,42.6,-1,-1,-1,-1,-1,-1,-1,-1,60,100,-1,-1,-1,-1
154.375,190,746.8,930,71.25,11.875,237.5,1.425,32.3,-1,-1,-1,-1,-1,-1,-1,-1,62.5,105,-1,-1,-1,-1
118.75,190,742.2,924.2,71.25,23.75,237.5,1.425,28.1,-1,-1,-1,-1,-1,-1,-1,-1,76,127,-1,-1,-1,-1
300.7,250,836,631,0,46.3,116,0,35.615,-1,-1,-1,-1,-1,-1,-1,-1,-1,-1,-1,-1,-1,-1
300.7,260.9,825,631,0,46.3,116,0,32.215,-1,-1,-1,-1,-1,-1,-1,-1,-1,-1,-1,-1,-1,-1
300.7,271.7,813,631,0,46.3,116,0,31.535,-1,-1,-1,-1,-1,-1,-1,-1,-1,-1,-1,-1,-1,-1
300.7,293.5,791,631,0,46.3,116,0,27.88,-1,-1,-1,-1,-1,-1,-1,-1,-1,-1,-1,-1,-1,-1
418.5,200,737,937.5,46.5,0,0,3.72,34.85,3.38,4.71,-1,-1,-1,-1,-1,-1,-1,-1,-1,-1,-1,-1
348.75,200,737,937.5,116.25,0,0,3.72,36.21,3.63,4.8,-1,-1,-1,-1,-1,-1,-1,-1,-1,-1,-1,-1
441.75,200,737,937.5,0,23.25,0,3.72,35.02,3.53,4.95,-1,-1,-1,-1,-1,-1,-1,-1,-1,-1,-1,-1
372,200,737,937.5,0,93,0,3.72,35.105,3.52,4.65,-1,-1,-1,-1,-1,-1,-1,-1,-1,-1,-1,-1
348.75,200,737,937.5,69.75,47.7,0,3.72,39.1,3.97,4.9,-1,-1,-1,-1,-1,-1,-1,-1,-1,-1,-1,-1
348.75,200,737,937.5,0,116.25,0,3.72,36.125,3.58,4.76,-1,-1,-1,-1,-1,-1,-1,-1,-1,-1,-1,-1
257,216.8,754,800,102,52,102,4.1,35.309,-1,-1,-1,-1,-1,-1,-1,-1,-1,-1,-1,-1,-1,-1
128,216.8,754,800,154,76,154,4.1,26.2905,-1,-1,-1,-1,-1,-1,-1,-1,-1,-1,-1,-1,-1,-1
260,206.7,849.4,785,104,52,104,6.76,34.2635,-1,-1,-1,-1,-1,-1,-1,-1,-1,-1,-1,-1,-1,-1
130,206.7,849.4,785,156,78,156,6.8,30.209,-1,-1,-1,-1,-1,-1,-1,-1,-1,-1,-1,-1,-1,-1
260,214.9,832,785,104,52,104,6.86,42.024,-1,-1,-1,-1,-1,-1,-1,-1,-1,-1,-1,-1,-1,-1
130,214.9,832,785,156,78,156,7.57,36.3375,-1,-1,-1,-1,-1,-1,-1,-1,-1,-1,-1,-1,-1,-1
113.7,214.9,832,785,136.5,68.3,136.5,3.19,22.2955,-1,-1,-1,-1,-1,-1,-1,-1,-1,-1,-1,-1,-1,-1
101,214.9,832,785,121.2,60.6,121.2,3.63,16.031,-1,-1,-1,-1,-1,-1,-1,-1,-1,-1,-1,-1,-1,-1
269.45,148.99,1268,634,0,47.55,0,0,26.35,3.3,-1,-1,-1,-1,-1,-1,-1,-1,-1,-1,-1,-1,-1
269.45,152.16,1268,634,47.55,0,0,0,25.5,3.23,-1,-1,-1,-1,-1,-1,-1,-1,-1,-1,-1,-1,-1
269.45,148.99,1268,634,23.78,23.78,0,0,28.9,3.75,-1,-1,-1,-1,-1,-1,-1,-1,-1,-1,-1,-1,-1
280,180,852,933,120,0,0,0,17.85,2,-1,23.4,4300,2470,-1,-1,-1,-1,-1,-1,-1,-1,-1
340,180,863,935,40,20,0,0,23.8,2.47,-1,28.3,2400,1500,-1,-1,-1,-1,-1,-1,-1,-1,-1
340,156,1799,1346,60,0,0,2.4,39.36,-1,-1,39,-1,-1,-1,-1,-1,-1,-1,-1,-1,-1,-1
240,156,1816,1386,0,0,160,1.6,39.15,-1,-1,38,-1,-1,-1,-1,-1,-1,-1,-1,-1,-1,-1
513,183.6,817.56,828.36,0,27,0,5.4,48.7305,-1,-1,-1,-1,-1,-1,-1,-1,-1,-1,-1,-1,-1,-1
324,162,1027,750,81,0,0,0,44.6,3.5,-1,26.3,-1,-1,-1,-1,-1,-1,-1,-1,-1,-1,-1
194,155,1041,760,97,0,97,0,42.9,3.8,-1,26.8,-1,-1,-1,-1,-1,-1,-1,-1,-1,-1,-1
116,155,1048,765,0,19,252,0,40.4,3.7,-1,21.7,-1,-1,-1,-1,-1,-1,-1,-1,-1,-1,-1
228,155,1073,664,114,0,114,0,53.5,4.1,-1,31,-1,-1,-1,-1,-1,-1,-1,-1,-1,-1,-1
137,155,1083,670,0,13,296,0,55.7,4.2,-1,21.7,-1,-1,-1,-1,-1,-1,-1,-1,-1,-1,-1
277,155,1016,628,111,28,138,0,73.7,4.8,-1,34.6,-1,-1,-1,-1,-1,-1,-1,-1,-1,-1,-1
137,155,1083,670,0,28,296,0,72.5,4.9,-1,30.7,-1,-1,-1,-1,-1,-1,-1,-1,-1,-1,-1
19,171,1130.94,679.32,152,19,0,0,37.4,2.75,4.17,-1,-1,-1,-1,-1,-1,-1,-1,-1,-1,-1,-1
199.5,171,1130.94,679.32,152,28.5,0,0,48.45,3.2,4.8,-1,-1,-1,-1,-1,-1,-1,-1,-1,-1,-1,-1
190,171,1130.94,679.32,152,38,0,0,42.925,3.02,4.2,-1,-1,-1,-1,-1,-1,-1,-1,-1,-1,-1,-1
284,198.8,1219,607,71,0,0,0,31.875,-1,-1,-1,-1,-1,-1,-1,-1,-1,-1,-1,-1,-1,-1
243,213.92,1192,594,104,35,0,0,31.025,-1,-1,-1,-1,-1,-1,-1,-1,-1,-1,-1,-1,-1,-1
300,200,860,845,200,0,0,9,22.1,1.7,-1,13,1240,-1,-1,-1,-1,-1,-1,-1,-1,-1,-1
399,159.6,868,868,0,21,0,2.142,66.3,-1,-1,-1,2200,1000,800,-1,-1,-1,-1,-1,-1,-1,-1
357,159.6,865,865,63,0,0,1.638,52.36,-1,-1,-1,4230,2350,1400,-1,-1,-1,-1,-1,-1,-1,-1
336,159.6,861,861,63,21,0,1.764,60.775,-1,-1,-1,2480,800,795,-1,-1,-1,-1,-1,-1,-1,-1
273,159.6,851,851,126,21,0,1.386,50.745,-1,-1,-1,3650,1000,650,-1,-1,-1,-1,-1,-1,-1,-1
244,142.5,1325,705,75,0,56,1.5,43.86,6.3,4.9,-1,-1,-1,-1,-1,-1,-1,-1,-1,-1,-1,-1
340,188,800,825,0,0,135,6.1275,36.55,-1,-1,-1,-1,-1,-1,-1,-1,-1,-1,-1,-1,-1,-1
430,205,651,1047,0,20,0,7.065,62.22,-1,-1,-1,-1,-1,-1,-1,-1,-1,-1,-1,-1,-1,-1
287.2,158,1110.39,796,0,71.8,0,0,25.33,3.2,3.8,27,-1,-1,-1,-1,-1,-1,-1,-1,-1,-1,-1
712.5,225,570,688,0,37.5,0,11.25,48.45,4.3,-1,-1,1064,739,-1,-1,-1,-1,-1,-1,-1,-1,-1
525,225,570,688,187.5,37.5,0,9.75,48.195,4.3,-1,-1,855,570,-1,-1,-1,-1,-1,-1,-1,-1,-1
360,189,780.2,982.4,0,45,45,1.8,42.3,4.01,5.09,37.4,160,-1,-1,-1,-1,-1,-1,-1,-1,-1,-1
315,189,651.7,981.2,0,45,90,1.8,36,3.75,4.25,33.2,397,-1,-1,-1,-1,-1,-1,-1,-1,-1,-1
225,189,776.8,977.9,0,45,180,2.02,35,3.24,4.53,32.16,99,-1,-1,-1,-1,-1,-1,-1,-1,-1,-1
180,189,648.6,976.3,0,45,225,2.02,27,2.25,3.25,26.63,220,-1,-1,-1,-1,-1,-1,-1,-1,-1,-1
524.7,186.56,1235,523,0,0,58.3,4.4,60.35,-1,-1,-1,-1,-1,-1,-1,-1,-1,-1,-1,-1,-1,-1
524.7,186.56,1235,523,58.3,0,0,4.1,59.075,-1,-1,-1,-1,-1,-1,-1,-1,-1,-1,-1,-1,-1,-1
466.4,186.56,1235,523,116.6,0,0,4,61.2,-1,-1,-1,-1,-1,-1,-1,-1,-1,-1,-1,-1,-1,-1
583,191.232,1235,523,0,14.6,0,4.3,64.6,-1,-1,-1,-1,-1,-1,-1,-1,-1,-1,-1,-1,-1,-1
408.1,191.232,1235,523,0,14.6,174.9,4.5,62.475,-1,-1,-1,-1,-1,-1,-1,-1,-1,-1,-1,-1,-1,-1
408.1,191.232,1235,523,58.3,14.6,116.6,4.47,57.12,-1,-1,-1,-1,-1,-1,-1,-1,-1,-1,-1,-1,-1,-1
530.7,230.464,1235,523,174.9,14.6,0,4.3,60.35,-1,-1,-1,-1,-1,-1,-1,-1,-1,-1,-1,-1,-1,-1
466.4,195.904,1235,523,0,29.2,116.6,4.7,65.45,-1,-1,-1,-1,-1,-1,-1,-1,-1,-1,-1,-1,-1,-1
466.4,195.904,1235,523,58.3,29.2,58.3,4.35,67.83,-1,-1,-1,-1,-1,-1,-1,-1,-1,-1,-1,-1,-1,-1
466.4,214.56,1235,523,116.6,29.2,58.3,4.27,58.65,-1,-1,-1,-1,-1,-1,-1,-1,-1,-1,-1,-1,-1,-1
524.7,200.544,1235,523,0,43.7,58.3,5.44,64.005,-1,-1,-1,-1,-1,-1,-1,-1,-1,-1,-1,-1,-1,-1
524.7,200.544,1235,523,58.3,43.7,0,5.2,63.75,-1,-1,-1,-1,-1,-1,-1,-1,-1,-1,-1,-1,-1,-1
466.4,200.544,1235,523,116.6,43.7,0,5.15,65.875,-1,-1,-1,-1,-1,-1,-1,-1,-1,-1,-1,-1,-1,-1
583,205.216,1235,523,0,58.3,0,5.62,67.15,-1,-1,-1,-1,-1,-1,-1,-1,-1,-1,-1,-1,-1,-1
408.1,205.216,1235,523,0,58.3,174.9,5.67,64.43,-1,-1,-1,-1,-1,-1,-1,-1,-1,-1,-1,-1,-1,-1
408.1,205.216,1235,523,58.3,58.3,116.6,5.26,58.65,-1,-1,-1,-1,-1,-1,-1,-1,-1,-1,-1,-1,-1,-1
530.7,244.448,1235,523,174.9,58.3,0,5.36,64.43,-1,-1,-1,-1,-1,-1,-1,-1,-1,-1,-1,-1,-1,-1
466.4,209.888,1235,523,0,72.9,116.6,5.76,65.45,-1,-1,-1,-1,-1,-1,-1,-1,-1,-1,-1,-1,-1,-1
466.4,209.888,1235,523,58.3,72.9,58.3,5.39,69.275,-1,-1,-1,-1,-1,-1,-1,-1,-1,-1,-1,-1,-1,-1
466.4,228.544,1235,523,116.6,72.9,58.3,5.72,57.8,-1,-1,-1,-1,-1,-1,-1,-1,-1,-1,-1,-1,-1,-1
440,176,917,714,110,0,0,7.43,59.33,-1,-1,-1,-1,-1,-1,-1,-1,-1,-1,-1,-1,-1,-1
440,176,931,725,0,0,110,10.43,63.835,-1,-1,-1,-1,-1,-1,-1,-1,-1,-1,-1,-1,-1,-1
522.5,176,930,724,0,27.5,0,9.56,68.255,-1,-1,-1,-1,-1,-1,-1,-1,-1,-1,-1,-1,-1,-1
440,176,916,713,82.5,27.5,0,8.22,67.32,-1,-1,-1,-1,-1,-1,-1,-1,-1,-1,-1,-1,-1,-1
440,176,927,721,0,27.5,82.5,9.78,67.66,-1,-1,-1,-1,-1,-1,-1,-1,-1,-1,-1,-1,-1,-1
440,176,924,720,55,0,55,8,65.365,-1,-1,-1,-1,-1,-1,-1,-1,-1,-1,-1,-1,-1,-1
440,176,922,717,41.3,27.5,41.3,6.4,66.81,-1,-1,-1,-1,-1,-1,-1,-1,-1,-1,-1,-1,-1,-1
125,172,1100,880,62.5,0,62.5,5,40.1,-1,-1,-1,-1,-1,-1,-1,-1,-1,-1,-1,-1,-1,-1
87.5,172,1100,880,62.5,0,100,5,34,-1,-1,-1,-1,-1,-1,-1,-1,-1,-1,-1,-1,-1,-1
122.5,172,1100,880,87.5,0,140,5,44.1,-1,-1,-1,-1,-1,-1,-1,-1,-1,-1,-1,-1,-1,-1
290,170,1035,697,0,0,125,2.9,47.1,-1,-1,33.3,-1,-1,-1,-1,-1,-1,-1,-1,-1,-1,-1
270,111.6,833,1249,0,0,90,0,65,-1,-1,-1,-1,-1,-1,-1,-1,-1,-1,-1,-1,-1,-1
180,136.8,843,1257,0,0,180,0,79.5,-1,-1,-1,-1,-1,-1,-1,-1,-1,-1,-1,-1,-1,-1
270,171,808,1204,0,0,180,0,70,-1,-1,-1,-1,-1,-1,-1,-1,-1,-1,-1,-1,-1,-1
175,215,1135,748,0,0,37.5,0,15.385,-1,-1,-1,-1,-1,-1,-1,-1,-1,-1,-1,-1,-1,-1
175,230,1033,681,0,0,175,0,23.63,-1,-1,-1,-1,-1,-1,-1,-1,-1,-1,-1,-1,-1,-1
210,219,1106,729,0,0,45,0,20.06,-1,-1,-1,-1,-1,-1,-1,-1,-1,-1,-1,-1,-1,-1
210,240,979,645,0,0,210,0,29.665,-1,-1,-1,-1,-1,-1,-1,-1,-1,-1,-1,-1,-1,-1
245,225,1073,708,0,0,52.5,0,24.65,-1,-1,-1,-1,-1,-1,-1,-1,-1,-1,-1,-1,-1,-1
245,250,924,609,0,0,245,0,35.955,-1,-1,-1,-1,-1,-1,-1,-1,-1,-1,-1,-1,-1,-1
280,231,1041,686,0,0,60,0,28.645,-1,-1,-1,-1,-1,-1,-1,-1,-1,-1,-1,-1,-1,-1
280,263,866,570,0,0,280,0,41.14,-1,-1,-1,-1,-1,-1,-1,-1,-1,-1,-1,-1,-1,-1
300,140,1135,644,200,0,0,7.5,55.42,-1,-1,-1,-1,-1,-1,-1,-1,-1,-1,-1,-1,-1,-1
252,183.6,1108,673.5,0,0,108,0,31.0845,-1,-1,-1,-1,-1,-1,-1,-1,-1,-1,-1,-1,-1,-1
274,160,1285,500,0,0,183,3.29,58,-1,7,41,-1,-1,-1,-1,-1,-1,-1,-1,-1,-1,-1
219.06,197.1,1139.1,657.19,0,46.58,199.15,0,28.8,3.43,6.28,-1,-1,-1,-1,-1,-1,-1,-1,-1,-1,-1,-1
486,165.24,817.56,828.36,0,54,0,4.86,55.25,4.8,-1,-1,-1,-1,-1,-1,-1,-1,-1,-1,-1,-1,-1
486,165.24,817.56,828.36,0,0,54,4.32,53.125,4.47,-1,-1,-1,-1,-1,-1,-1,-1,-1,-1,-1,-1,-1
400,150,1147,703,0,0,100,7.5,67.915,-1,-1,-1,-1,-1,-1,-1,-1,-1,-1,-1,-1,-1,-1
442,288.96,678,984,78,0,0,4.16,33.745,3.75,-1,-1,-1,-1,-1,-1,-1,-1,-1,-1,-1,-1,-1
410.8,288.96,678,984,78,31.2,0,4.16,31.705,3.35,-1,-1,-1,-1,-1,-1,-1,-1,-1,-1,-1,-1,-1
286,288.96,678,984,78,0,156,4.16,35.87,4,-1,-1,-1,-1,-1,-1,-1,-1,-1,-1,-1,-1,-1
156,195,1200,710,0,0,212,0,24.65,2.8,3.57,-1,-1,-1,-1,-1,-1,-1,-1,-1,-1,-1,-1
156,203,1174,710,0,0,212,0,24.225,2.57,3.45,-1,-1,-1,-1,-1,-1,-1,-1,-1,-1,-1,-1
156,207,1148,710,0,0,212,0,23.8,2.55,3.45,-1,-1,-1,-1,-1,-1,-1,-1,-1,-1,-1,-1
156,215,1096,710,0,0,212,0,20.4,2.36,3.15,-1,-1,-1,-1,-1,-1,-1,-1,-1,-1,-1,-1
360,203,1040,482,0,0,90,4.95,28.7,2.95,-1,12.5,-1,-1,-1,-1,-1,-1,-1,-1,-1,-1,-1
435,154,1098,772,0,43.5,0,4.31,44.03,-1,-1,-1,-1,-1,-1,-1,-1,-1,-1,-1,-1,-1,-1
435,154,1098,772,0,0,43.5,4.31,40.205,-1,-1,-1,-1,-1,-1,-1,-1,-1,-1,-1,-1,-1,-1
324,180,1160,681,0,0,36,0,29.75,-1,-1,-1,-1,-1,-1,-1,-1,-1,-1,-1,-1,-1,-1
270,157.5,1105.5,737,0,0,180,3,26.4,-1,-1,-1,-1,-1,-1,-1,-1,-1,-1,-1,-1,-1,-1
427.5,112.5,1432.8,445.73,0,22.5,0,18,91.16,-1,-1,38.88,-1,-1,-1,-1,-1,-1,-1,-1,-1,-1,-1
360,112.5,1417.99,441.12,0,90,0,13.5,98.46,-1,-1,40.35,-1,-1,-1,-1,-1,-1,-1,-1,-1,-1,-1
405,126,1125,675,0,45,0,14,96.815,-1,-1,47.06,-1,-1,-1,-1,-1,-1,-1,-1,-1,-1,-1
360,126,1125,675,90,0,0,14,71.655,-1,-1,43.06,-1,-1,-1,-1,-1,-1,-1,-1,-1,-1,-1
270,126,1125,675,0,0,180,14,74.46,-1,-1,44.84,-1,-1,-1,-1,-1,-1,-1,-1,-1,-1,-1
180,135,895,895,225,45,0,1.429,62.85,-1,-1,-1,-1,-1,-1,-1,-1,-1,-1,-1,-1,-1,-1
135,135,895,895,0,45,270,2.429,82.47,-1,-1,-1,-1,-1,-1,-1,-1,-1,-1,-1,-1,-1,-1
135,135,895,895,135,45,135,2.571,76.75,-1,-1,-1,-1,-1,-1,-1,-1,-1,-1,-1,-1,-1,-1
135,135,875,875,0,0,315,1,66.85,-1,-1,-1,-1,-1,-1,-1,-1,-1,-1,-1,-1,-1,-1
135,135,875,875,135,45,135,2.714,65.64,-1,-1,-1,-1,-1,-1,-1,-1,-1,-1,-1,-1,-1,-1
332.4,214,1212,520,71.3,0,71.3,0,36.465,-1,-1,-1,-1,-1,-1,-1,-1,-1,-1,-1,-1,-1,-1
332.4,214,1212,520,71.3,23.8,47.5,0,35.751,-1,-1,-1,-1,-1,-1,-1,-1,-1,-1,-1,-1,-1,-1
332.4,214,1212,520,71.3,47.5,23.8,0,34.8075,-1,-1,-1,-1,-1,-1,-1,-1,-1,-1,-1,-1,-1,-1
332.4,214,1212,520,71.3,71.3,0,0,33.626,-1,-1,-1,-1,-1,-1,-1,-1,-1,-1,-1,-1,-1,-1
332.4,214,1212,520,0,71.3,71.3,0,39.491,-1,-1,-1,-1,-1,-1,-1,-1,-1,-1,-1,-1,-1,-1
300,160,1356,741,0,0,100,0,44.625,4.3,5.35,36.09,2594,-1,-1,-1,-1,-1,-1,-1,-1,-1,-1
385,137.5,840.2,840.2,165,0,0,21.7,51,-1,-1,-1,-1,-1,-1,-1,-1,-1,-1,-1,-1,-1,-1
220,137.5,815.7,815.7,330,0,0,18.7,38.25,-1,-1,-1,-1,-1,-1,-1,-1,-1,-1,-1,-1,-1,-1
385,137.5,790.2,790.2,0,0,165,21.2,70.125,-1,-1,-1,-1,-1,-1,-1,-1,-1,-1,-1,-1,-1,-1
220,137.5,715.1,715.1,0,0,330,18.2,59.5,-1,-1,-1,-1,-1,-1,-1,-1,-1,-1,-1,-1,-1,-1
385,137.5,816.1,816.1,82.5,0,82.5,20.6,72.42,-1,-1,-1,-1,-1,-1,-1,-1,-1,-1,-1,-1,-1,-1
220,137.5,766,766,165,0,165,17.9,55.25,-1,-1,-1,-1,-1,-1,-1,-1,-1,-1,-1,-1,-1,-1
174.24,197,1010.55,794,0,11.7,0,0,25.5,3.48,-1,-1,-1,-1,-1,-1,-1,-1,-1,-1,-1,-1,-1
128.16,197,1013.93,796.66,0,0,63.84,0,23.8,3.44,-1,-1,-1,-1,-1,-1,-1,-1,-1,-1,-1,-1,-1
243,116.64,1009,1127,0,0,243,14.55,66.3,-1,13,-1,-1,-1,-1,96.5,207.52,280.84,-1,-1,-1,-1,-1
243,135.8,974,1087,0,58,184,14.55,61.2,-1,10.2,-1,-1,-1,-1,-1,-1,-1,-1,-1,-1,-1,-1
,,,,,,,,,,,,,,,,,,,,,,
,,,,,,,,,,,,,,,,,,,,,,
,,,,,,,,,,,,,,,,,,,,,,
,,,,,,,,,,,,,,,,,,,,,,
,,,,,,,,,,,,,,,,,,,,,,
,,,,,,,,,,,,,,,,,,,,,,