File: SCM.csv
 Cement(kg/m3), Water(kg/m3),Coarse aggregate(kg/m3),Fine aggregate(kg/m3), FA (kg/m3),SF (kg/m3),GGBFS (kg/m3),SP (kg/m3),Cylinder compressive strength (MPa),Splitting tensile strength (MPa),Flexural strength (MPa),Elastic modulus (GPa),Chloride permeability (Coulomb) 28d,Chloride permeability (Coulomb) 90d,Chloride permeability (Coulomb) 180d,Drying shrinkage (??) 7d,Drying shrinkage (??) 28d,Drying shrinkage (??) 90d,Drying shrinkage (??)120d,Creep (??) 28d,Creep (??) 90d,Creep (??) 150d,Abrasion (mm) 28 d
300.0,150.0,1097.0,673.0,200.0,0.0,0.0,4.5,52.7,2.52,-1.0,-1.0,-1.0,-1.0,-1.0,-1.0,-1.0,-1.0,-1.0,-1.0,-1.0,-1.0,-1.0
225.0,150.0,1097.0,673.0,0.0,0.0,275.0,6.0,51.0,2.65,-1.0,-1.0,-1.0,-1.0,-1.0,-1.0,-1.0,-1.0,-1.0,-1.0,-1.0,-1.0,-1.0
166.0,168.0,820.0,932.0,249.0,0.0,0.0,1.69,34.1,-1.0,-1.0,-1.0,-1.0,-1.0,-1.0,-1.0,-1.0,-1.0,-1.0,-1.0,-1.0,-1.0,-1.0
83.0,168.0,820.0,932.0,0.0,0.0,332.0,1.69,57.6,-1.0,-1.0,-1.0,-1.0,-1.0,-1.0,-1.0,-1.0,-1.0,-1.0,-1.0,-1.0,-1.0,-1.0
41.5,168.0,820.0,932.0,93.375,0.0,280.125,1.69,47.2,-1.0,-1.0,39.7,-1.0,-1.0,-1.0,-1.0,-1.0,-1.0,-1.0,-1.0,-1.0,-1.0,-1.0
166.0,168.0,820.0,932.0,186.75,0.0,62.25,1.69,49.0,-1.0,-1.0,38.0,-1.0,-1.0,-1.0,-1.0,-1.0,-1.0,-1.0,-1.0,-1.0,-1.0,-1.0
260.0,206.7,849.4,785.0,130.0,0.0,130.0,5.43,28.48,-1.0,-1.0,-1.0,-1.0,-1.0,-1.0,-1.0,-1.0,-1.0,-1.0,-1.0,-1.0,-1.0,-1.0
130.0,206.7,849.4,785.0,156.0,78.0,156.0,6.8,30.21,-1.0,-1.0,-1.0,-1.0,-1.0,-1.0,-1.0,-1.0,-1.0,-1.0,-1.0,-1.0,-1.0,-1.0
130.0,214.9,832.0,785.0,390.0,0.0,0.0,7.4,11.59,0.96,-1.0,-1.0,-1.0,-1.0,-1.0,-1.0,405.0,500.0,500.0,-1.0,-1.0,-1.0,-1.0
290.0,163.0,1048.0,670.0,72.5,0.0,0.0,0.0,36.0,-1.0,-1.0,-1.0,-1.0,-1.0,-1.0,-1.0,-1.0,-1.0,-1.0,-1.0,-1.0,-1.0,-1.0
290.0,163.0,1048.0,670.0,72.5,0.0,0.0,0.0,36.0,-1.0,-1.0,-1.0,-1.0,-1.0,-1.0,-1.0,-1.0,-1.0,-1.0,-1.0,-1.0,-1.0,-1.0
253.75,163.0,1048.0,670.0,108.75,0.0,0.0,0.0,34.5,3.46725,-1.0,-1.0,-1.0,-1.0,-1.0,-1.0,-1.0,-1.0,-1.0,-1.0,-1.0,-1.0,-1.0
253.75,163.0,1048.0,670.0,108.75,0.0,0.0,0.0,38.0,3.8038,-1.0,-1.0,-1.0,-1.0,-1.0,-1.0,-1.0,-1.0,-1.0,-1.0,-1.0,-1.0,-1.0
235.62,163.0,1048.0,670.0,0.0,0.0,126.88,0.0,39.5,3.91,-1.0,-1.0,-1.0,-1.0,-1.0,-1.0,-1.0,-1.0,-1.0,-1.0,-1.0,-1.0,-1.0
253.75,163.0,1048.0,670.0,90.62,18.12,0.0,0.0,35.0,3.53,-1.0,-1.0,-1.0,-1.0,-1.0,-1.0,-1.0,-1.0,-1.0,-1.0,-1.0,-1.0,-1.0
411.89,260.14,810.0,795.0,0.0,16.08,0.0,0.0,34.77,-1.0,-1.0,-1.0,-1.0,-1.0,-1.0,-1.0,-1.0,-1.0,-1.0,-1.0,-1.0,-1.0,-1.0
418.5,200.0,774.0,875.0,0.0,36.0,0.0,7.5,64.0,-1.0,-1.0,-1.0,966.0,685.0,-1.0,-1.0,-1.0,-1.0,-1.0,-1.0,-1.0,-1.0,-1.0
291.0,200.0,773.0,872.0,163.5,0.0,0.0,6.35,56.5,-1.0,-1.0,-1.0,3240.0,2286.0,-1.0,-1.0,-1.0,-1.0,-1.0,-1.0,-1.0,-1.0,-1.0
209.5,200.0,761.0,858.0,163.5,0.0,81.5,4.31,35.8,-1.0,-1.0,-1.0,4204.0,660.0,-1.0,-1.0,-1.0,-1.0,-1.0,-1.0,-1.0,-1.0,-1.0
228.0,182.0,1100.0,770.0,0.0,23.0,228.0,1.82,46.0,4.5,-1.0,26.7,-1.0,-1.0,-1.0,-1.0,-1.0,-1.0,-1.0,-1.0,-1.0,-1.0,-1.0
594.4,185.8,1049.4,449.3,148.6,0.0,0.0,3.0,65.0,-1.0,-1.0,-1.0,886.0,-1.0,-1.0,376.0,460.0,-1.0,550.0,-1.0,-1.0,-1.0,-1.0
440.0,198.0,797.5,962.5,0.0,110.0,0.0,8.25,45.1,-1.0,-1.0,-1.0,-1.0,-1.0,-1.0,-1.0,-1.0,-1.0,-1.0,-1.0,-1.0,-1.0,-1.0
425.0,175.0,1203.0,647.0,0.0,75.0,0.0,13.34,59.5,-1.0,-1.0,38.1,-1.0,-1.0,-1.0,-1.0,-1.0,-1.0,-1.0,-1.0,-1.0,-1.0,-1.0
478.0,121.0,1119.0,603.0,0.0,120.0,0.0,12.0,102.0,-1.0,-1.0,-1.0,-1.0,-1.0,-1.0,-1.0,-1.0,-1.0,-1.0,-1.0,-1.0,-1.0,-1.0
475.0,150.0,1050.0,685.0,0.0,25.0,0.0,19.0,77.35,-1.0,-1.0,-1.0,-1.0,-1.0,-1.0,-1.0,-1.0,-1.0,-1.0,-1.0,-1.0,-1.0,-1.0
450.0,165.0,1050.0,685.0,0.0,50.0,0.0,12.0,76.075,-1.0,-1.0,-1.0,-1.0,-1.0,-1.0,-1.0,-1.0,-1.0,-1.0,-1.0,-1.0,-1.0,-1.0
450.0,149.0,1168.0,615.0,0.0,45.0,0.0,3.7,84.2,-1.0,-1.0,-1.0,-1.0,-1.0,-1.0,-1.0,-1.0,-1.0,-1.0,-1.0,-1.0,-1.0,-1.0
416.0,135.2,1146.0,667.0,0.0,104.0,0.0,18.2,79.9,6.51,11.1,-1.0,-1.0,-1.0,-1.0,-1.0,-1.0,-1.0,-1.0,-1.0,-1.0,-1.0,-1.0
433.5,153.0,1122.5,653.0,0.0,76.5,0.0,17.85,71.99,6.25,9.95,-1.0,-1.0,-1.0,-1.0,-1.0,-1.0,-1.0,-1.0,-1.0,-1.0,-1.0,-1.0
450.0,170.0,1100.0,640.0,0.0,50.0,0.0,17.5,61.2,5.71,8.85,-1.0,-1.0,-1.0,-1.0,-1.0,-1.0,-1.0,-1.0,-1.0,-1.0,-1.0,-1.0
465.5,186.2,1078.0,628.0,0.0,24.5,0.0,17.15,51.0,4.51,7.21,-1.0,-1.0,-1.0,-1.0,-1.0,-1.0,-1.0,-1.0,-1.0,-1.0,-1.0,-1.0
367.5,186.2,1078.0,628.0,0.0,122.5,0.0,17.15,60.95,5.25,9.36,-1.0,-1.0,-1.0,-1.0,-1.0,-1.0,-1.0,-1.0,-1.0,-1.0,-1.0,-1.0
408.0,201.6,1058.0,616.0,0.0,72.0,0.0,16.8,51.0,4.5,7.4,-1.0,-1.0,-1.0,-1.0,-1.0,-1.0,-1.0,-1.0,-1.0,-1.0,-1.0,-1.0
720.0,231.0,710.0,730.0,0.0,80.0,0.0,33.0,92.91,-1.0,-1.0,51.3,-1.0,-1.0,-1.0,-1.0,-1.0,-1.0,-1.0,-1.0,-1.0,-1.0,-1.0
640.0,185.0,710.0,730.0,160.0,0.0,0.0,32.0,102.68,-1.0,-1.0,56.2,-1.0,-1.0,-1.0,-1.0,-1.0,-1.0,-1.0,-1.0,-1.0,-1.0,-1.0
212.1,184.2,1057.6,779.3,125.6,0.0,0.0,5.7,21.81,-1.0,-1.0,-1.0,-1.0,-1.0,-1.0,-1.0,-1.0,-1.0,-1.0,-1.0,-1.0,-1.0,-1.0
213.5,159.2,1043.6,771.9,124.8,0.0,0.0,11.7,44.61,-1.0,-1.0,-1.0,-1.0,-1.0,-1.0,-1.0,-1.0,-1.0,-1.0,-1.0,-1.0,-1.0,-1.0
307.0,193.5,968.0,799.5,124.8,0.0,0.0,0.0,29.33,-1.0,-1.0,-1.0,-1.0,-1.0,-1.0,-1.0,-1.0,-1.0,-1.0,-1.0,-1.0,-1.0,-1.0
302.0,202.7,974.0,817.0,124.8,0.0,0.0,0.0,26.11,-1.0,-1.0,-1.0,-1.0,-1.0,-1.0,-1.0,-1.0,-1.0,-1.0,-1.0,-1.0,-1.0,-1.0
148.0,158.4,1002.0,830.0,124.8,0.0,0.0,16.0,19.95,-1.0,-1.0,-1.0,-1.0,-1.0,-1.0,-1.0,-1.0,-1.0,-1.0,-1.0,-1.0,-1.0,-1.0
148.1,159.2,1001.8,830.1,124.6,0.0,0.0,16.1,18.98,-1.0,-1.0,-1.0,-1.0,-1.0,-1.0,-1.0,-1.0,-1.0,-1.0,-1.0,-1.0,-1.0,-1.0
190.8,185.1,979.5,811.0,124.8,0.0,0.0,11.1,15.21,-1.0,-1.0,-1.0,-1.0,-1.0,-1.0,-1.0,-1.0,-1.0,-1.0,-1.0,-1.0,-1.0,-1.0
318.9,212.7,860.5,725.0,124.8,0.0,0.0,5.7,36.09,-1.0,-1.0,-1.0,-1.0,-1.0,-1.0,-1.0,-1.0,-1.0,-1.0,-1.0,-1.0,-1.0,-1.0
425.0,140.0,1041.0,740.0,50.0,25.0,0.0,2.5,61.97,-1.0,-1.0,-1.0,-1.0,-1.0,-1.0,-1.0,-1.0,-1.0,-1.0,-1.0,-1.0,-1.0,-1.0
325.0,160.0,1101.0,660.0,150.0,25.0,0.0,2.0,50.92,-1.0,-1.0,-1.0,-1.0,-1.0,-1.0,-1.0,-1.0,-1.0,-1.0,-1.0,-1.0,-1.0,-1.0
375.0,180.0,876.0,860.0,100.0,25.0,0.0,1.0,55.42,-1.0,-1.0,-1.0,-1.0,-1.0,-1.0,-1.0,-1.0,-1.0,-1.0,-1.0,-1.0,-1.0,-1.0
475.0,200.0,937.0,780.0,0.0,25.0,0.0,0.75,45.47,-1.0,-1.0,-1.0,-1.0,-1.0,-1.0,-1.0,-1.0,-1.0,-1.0,-1.0,-1.0,-1.0,-1.0
151.8,167.5,944.0,694.6,138.7,0.0,178.1,18.3,36.35,-1.0,-1.0,-1.0,-1.0,-1.0,-1.0,-1.0,-1.0,-1.0,-1.0,-1.0,-1.0,-1.0,-1.0
178.0,179.9,1007.3,746.8,118.6,0.0,129.8,3.6,39.16,-1.0,-1.0,-1.0,-1.0,-1.0,-1.0,-1.0,-1.0,-1.0,-1.0,-1.0,-1.0,-1.0,-1.0
237.0,247.0,853.0,695.0,71.0,0.0,92.0,6.0,28.63,-1.0,-1.0,-1.0,-1.0,-1.0,-1.0,-1.0,-1.0,-1.0,-1.0,-1.0,-1.0,-1.0,-1.0
160.0,182.0,824.0,879.0,122.0,0.0,128.0,6.4,39.4,-1.0,-1.0,-1.0,-1.0,-1.0,-1.0,-1.0,-1.0,-1.0,-1.0,-1.0,-1.0,-1.0,-1.0
218.2,140.8,1075.7,792.7,123.8,0.0,54.6,11.9,55.51,-1.0,-1.0,-1.0,-1.0,-1.0,-1.0,-1.0,-1.0,-1.0,-1.0,-1.0,-1.0,-1.0,-1.0
446.0,162.0,967.0,712.0,79.0,0.0,24.0,11.6,44.42,-1.0,-1.0,-1.0,-1.0,-1.0,-1.0,-1.0,-1.0,-1.0,-1.0,-1.0,-1.0,-1.0,-1.0
159.0,201.0,848.0,669.0,161.0,0.0,209.0,7.0,30.88,-1.0,-1.0,-1.0,-1.0,-1.0,-1.0,-1.0,-1.0,-1.0,-1.0,-1.0,-1.0,-1.0,-1.0
144.0,192.0,814.0,805.0,133.0,0.0,170.0,8.0,29.87,-1.0,-1.0,-1.0,-1.0,-1.0,-1.0,-1.0,-1.0,-1.0,-1.0,-1.0,-1.0,-1.0,-1.0
236.9,246.9,852.9,695.4,71.5,0.0,91.7,6.0,28.63,-1.0,-1.0,-1.0,-1.0,-1.0,-1.0,-1.0,-1.0,-1.0,-1.0,-1.0,-1.0,-1.0,-1.0
153.0,178.0,867.0,824.0,113.0,0.0,145.0,8.0,26.23,-1.0,-1.0,-1.0,-1.0,-1.0,-1.0,-1.0,-1.0,-1.0,-1.0,-1.0,-1.0,-1.0,-1.0
173.8,172.3,1007.2,746.6,159.9,0.0,93.4,9.7,37.81,-1.0,-1.0,-1.0,-1.0,-1.0,-1.0,-1.0,-1.0,-1.0,-1.0,-1.0,-1.0,-1.0,-1.0
266.0,178.0,910.0,745.0,87.0,0.0,112.0,10.0,39.42,-1.0,-1.0,-1.0,-1.0,-1.0,-1.0,-1.0,-1.0,-1.0,-1.0,-1.0,-1.0,-1.0,-1.0
277.0,191.0,946.0,666.0,91.0,0.0,117.0,7.0,43.57,-1.0,-1.0,-1.0,-1.0,-1.0,-1.0,-1.0,-1.0,-1.0,-1.0,-1.0,-1.0,-1.0,-1.0
264.5,195.5,832.6,790.4,86.5,0.0,111.0,5.9,41.54,-1.0,-1.0,-1.0,-1.0,-1.0,-1.0,-1.0,-1.0,-1.0,-1.0,-1.0,-1.0,-1.0,-1.0
310.0,168.0,914.0,651.0,111.0,0.0,143.0,22.0,33.69,-1.0,-1.0,-1.0,-1.0,-1.0,-1.0,-1.0,-1.0,-1.0,-1.0,-1.0,-1.0,-1.0,-1.0
424.0,168.0,822.0,750.0,132.0,0.0,22.0,8.9,72.1,-1.0,-1.0,-1.0,-1.0,-1.0,-1.0,-1.0,-1.0,-1.0,-1.0,-1.0,-1.0,-1.0,-1.0
144.0,178.0,941.0,774.0,106.0,0.0,136.0,7.0,26.14,-1.0,-1.0,-1.0,-1.0,-1.0,-1.0,-1.0,-1.0,-1.0,-1.0,-1.0,-1.0,-1.0,-1.0
149.0,182.9,953.4,780.3,91.7,0.0,117.6,7.1,23.52,-1.0,-1.0,-1.0,-1.0,-1.0,-1.0,-1.0,-1.0,-1.0,-1.0,-1.0,-1.0,-1.0,-1.0
160.2,203.2,828.7,709.7,146.4,0.0,188.0,11.3,35.31,-1.0,-1.0,-1.0,-1.0,-1.0,-1.0,-1.0,-1.0,-1.0,-1.0,-1.0,-1.0,-1.0,-1.0
287.3,187.6,904.4,695.9,93.9,0.0,120.5,9.2,43.8,-1.0,-1.0,-1.0,-1.0,-1.0,-1.0,-1.0,-1.0,-1.0,-1.0,-1.0,-1.0,-1.0,-1.0
135.0,196.0,965.0,643.0,193.0,0.0,105.0,6.0,21.91,-1.0,-1.0,-1.0,-1.0,-1.0,-1.0,-1.0,-1.0,-1.0,-1.0,-1.0,-1.0,-1.0,-1.0
173.5,164.8,1006.2,793.5,173.5,0.0,50.1,6.5,38.2,-1.0,-1.0,-1.0,-1.0,-1.0,-1.0,-1.0,-1.0,-1.0,-1.0,-1.0,-1.0,-1.0,-1.0
182.0,170.2,1059.4,780.7,122.0,0.0,45.2,8.2,31.27,-1.0,-1.0,-1.0,-1.0,-1.0,-1.0,-1.0,-1.0,-1.0,-1.0,-1.0,-1.0,-1.0,-1.0
132.0,178.9,866.9,735.6,160.9,0.0,206.5,5.5,33.31,-1.0,-1.0,-1.0,-1.0,-1.0,-1.0,-1.0,-1.0,-1.0,-1.0,-1.0,-1.0,-1.0,-1.0
279.8,172.4,825.1,804.9,100.4,0.0,128.9,9.5,52.83,-1.0,-1.0,-1.0,-1.0,-1.0,-1.0,-1.0,-1.0,-1.0,-1.0,-1.0,-1.0,-1.0,-1.0
314.0,179.0,869.0,690.0,113.0,0.0,145.0,8.0,46.23,-1.0,-1.0,-1.0,-1.0,-1.0,-1.0,-1.0,-1.0,-1.0,-1.0,-1.0,-1.0,-1.0,-1.0
355.0,145.0,967.0,871.0,97.0,0.0,19.0,12.3,55.45,-1.0,-1.0,-1.0,-1.0,-1.0,-1.0,-1.0,-1.0,-1.0,-1.0,-1.0,-1.0,-1.0,-1.0
277.2,160.7,1061.7,782.5,24.5,0.0,97.8,11.2,63.14,-1.0,-1.0,-1.0,-1.0,-1.0,-1.0,-1.0,-1.0,-1.0,-1.0,-1.0,-1.0,-1.0,-1.0
164.0,197.0,961.0,641.0,128.0,0.0,163.0,8.0,27.23,-1.0,-1.0,-1.0,-1.0,-1.0,-1.0,-1.0,-1.0,-1.0,-1.0,-1.0,-1.0,-1.0,-1.0
359.0,154.0,942.0,801.0,141.0,0.0,19.0,10.9,62.94,-1.0,-1.0,-1.0,-1.0,-1.0,-1.0,-1.0,-1.0,-1.0,-1.0,-1.0,-1.0,-1.0,-1.0
276.4,179.6,870.1,768.3,90.3,0.0,116.0,8.9,44.28,-1.0,-1.0,-1.0,-1.0,-1.0,-1.0,-1.0,-1.0,-1.0,-1.0,-1.0,-1.0,-1.0,-1.0
330.0,181.5,722.0,970.0,192.5,27.5,0.0,1.21,38.34,-1.0,-1.0,-1.0,-1.0,-1.0,-1.0,-1.0,-1.0,-1.0,-1.0,-1.0,-1.0,-1.0,-1.0
300.0,191.0,571.0,1029.0,200.0,0.0,0.0,1.83,30.26,-1.0,-1.0,-1.0,-1.0,-1.0,-1.0,-1.0,-1.0,-1.0,-1.0,-1.0,-1.0,-1.0,-1.0
350.0,191.0,592.0,1066.0,0.0,0.0,150.0,2.0,38.505,-1.0,-1.0,-1.0,-1.0,-1.0,-1.0,-1.0,-1.0,-1.0,-1.0,-1.0,-1.0,-1.0,-1.0
496.0,235.6,720.0,780.0,124.0,0.0,0.0,4.0,46.22,-1.0,-1.0,-1.0,-1.0,-1.0,-1.0,-1.0,-1.0,-1.0,-1.0,-1.0,-1.0,-1.0,-1.0
465.0,235.6,720.0,780.0,155.0,0.0,0.0,2.77,50.13,-1.0,-1.0,-1.0,-1.0,-1.0,-1.0,-1.0,-1.0,-1.0,-1.0,-1.0,-1.0,-1.0,-1.0
480.0,220.0,699.0,819.0,96.0,0.0,0.0,10.1,45.05,-1.0,-1.0,31.0,-1.0,-1.0,-1.0,-1.0,-1.0,-1.0,-1.0,-1.0,-1.0,-1.0,-1.0
180.0,180.0,595.0,908.0,420.0,0.0,0.0,0.72,38.76,-1.0,-1.0,-1.0,1830.0,-1.0,-1.0,-1.0,-1.0,-1.0,-1.0,-1.0,-1.0,-1.0,-1.0
240.0,180.0,595.0,933.0,330.0,30.0,0.0,1.8,53.89,-1.0,-1.0,-1.0,690.0,-1.0,-1.0,-1.0,-1.0,-1.0,-1.0,-1.0,-1.0,-1.0,-1.0
180.0,180.0,595.0,908.0,360.0,60.0,0.0,2.28,52.02,-1.0,-1.0,-1.0,515.0,-1.0,-1.0,-1.0,-1.0,-1.0,-1.0,-1.0,-1.0,-1.0,-1.0
489.0,180.0,621.0,1120.0,0.0,26.0,0.0,8.224,72.51,-1.0,-1.0,-1.0,1100.0,-1.0,-1.0,-1.0,-1.0,-1.0,-1.0,-1.0,-1.0,-1.0,-1.0
154.0,180.0,621.0,980.0,334.0,26.0,0.0,1.1308,39.01,-1.0,-1.0,-1.0,2000.0,-1.0,-1.0,-1.0,-1.0,-1.0,-1.0,-1.0,-1.0,-1.0,-1.0
225.0,180.0,640.0,1072.0,225.0,0.0,0.0,1.17,35.62,-1.0,-1.0,-1.0,3560.0,-1.0,-1.0,-1.0,-1.0,-1.0,-1.0,-1.0,-1.0,-1.0,-1.0
405.0,180.0,640.0,1147.0,0.0,45.0,0.0,9.45,67.15,-1.0,-1.0,-1.0,750.0,-1.0,-1.0,-1.0,-1.0,-1.0,-1.0,-1.0,-1.0,-1.0,-1.0
225.0,180.0,640.0,1072.0,180.0,45.0,0.0,2.88,51.26,-1.0,-1.0,-1.0,1000.0,-1.0,-1.0,-1.0,-1.0,-1.0,-1.0,-1.0,-1.0,-1.0,-1.0
450.0,175.0,685.0,954.0,0.0,50.0,0.0,9.0,69.7,-1.0,-1.0,-1.0,-1.0,-1.0,-1.0,-1.0,-1.0,-1.0,-1.0,-1.0,-1.0,-1.0,-1.0
225.0,175.0,652.0,908.0,275.0,0.0,0.0,7.5,35.7,-1.0,-1.0,-1.0,-1.0,-1.0,-1.0,-1.0,-1.0,-1.0,-1.0,-1.0,-1.0,-1.0,-1.0
385.0,234.4,590.0,910.0,165.0,0.0,0.0,9.91,26.06,1.76,-1.0,-1.0,-1.0,634.0,-1.0,-1.0,-1.0,-1.0,-1.0,-1.0,-1.0,-1.0,-1.0
220.0,176.0,881.0,686.0,330.0,0.0,0.0,6.67,40.37,-1.0,-1.0,-1.0,-1.0,-1.0,-1.0,189.0,320.0,-1.0,-1.0,-1.0,-1.0,-1.0,-1.0
522.5,176.0,930.0,724.0,0.0,27.5,0.0,9.56,68.34,-1.0,-1.0,-1.0,-1.0,-1.0,-1.0,248.0,401.0,-1.0,-1.0,-1.0,-1.0,-1.0,-1.0
330.0,176.0,898.0,699.0,165.0,55.0,0.0,9.11,57.12,-1.0,-1.0,-1.0,-1.0,-1.0,-1.0,300.0,428.0,-1.0,-1.0,-1.0,-1.0,-1.0,-1.0
220.0,176.0,912.0,710.0,0.0,82.5,247.5,10.22,71.82,-1.0,-1.0,-1.0,-1.0,-1.0,-1.0,230.0,375.0,-1.0,-1.0,-1.0,-1.0,-1.0,-1.0
440.0,176.0,924.0,720.0,41.25,27.5,41.25,8.0,66.81,-1.0,-1.0,-1.0,-1.0,-1.0,-1.0,275.0,390.0,-1.0,-1.0,-1.0,-1.0,-1.0,-1.0
180.0,198.0,829.0,788.0,270.0,0.0,0.0,3.0,25.75,-1.0,-1.0,-1.0,-1.0,-1.0,-1.0,197.0,350.0,-1.0,-1.0,-1.0,-1.0,-1.0,-1.0
427.5,198.0,865.0,823.0,0.0,22.5,0.0,4.88,51.95,-1.0,-1.0,-1.0,-1.0,-1.0,-1.0,221.0,400.0,-1.0,-1.0,-1.0,-1.0,-1.0,-1.0
270.0,198.0,841.0,801.0,135.0,45.0,0.0,4.52,39.86,-1.0,-1.0,-1.0,-1.0,-1.0,-1.0,178.0,-1.0,-1.0,-1.0,-1.0,-1.0,-1.0,-1.0
180.0,198.0,852.0,810.0,0.0,67.5,202.5,5.76,48.96,-1.0,-1.0,-1.0,-1.0,-1.0,-1.0,198.0,-1.0,-1.0,-1.0,-1.0,-1.0,-1.0,-1.0
360.0,198.0,859.0,817.0,33.75,22.5,33.75,4.2,51.51,-1.0,-1.0,-1.0,-1.0,-1.0,-1.0,156.0,400.0,-1.0,-1.0,-1.0,-1.0,-1.0,-1.0
270.0,198.0,842.0,801.0,180.0,0.0,0.0,2.9,60.3,-1.0,-1.0,-1.0,-1.0,1083.0,-1.0,197.0,354.0,-1.0,-1.0,-1.0,-1.0,-1.0,-1.0
180.0,198.0,861.0,819.0,0.0,0.0,270.0,2.8,65.7,-1.0,-1.0,-1.0,-1.0,282.0,-1.0,203.0,380.0,-1.0,-1.0,-1.0,-1.0,-1.0,-1.0
360.0,198.0,855.0,813.0,67.5,22.5,0.0,4.2,67.2,-1.0,-1.0,-1.0,-1.0,1184.0,-1.0,173.0,-1.0,-1.0,-1.0,-1.0,-1.0,-1.0,-1.0
270.0,198.0,857.0,816.0,0.0,45.0,135.0,4.6,68.2,-1.0,-1.0,-1.0,-1.0,408.0,-1.0,199.0,-1.0,-1.0,-1.0,-1.0,-1.0,-1.0,-1.0
180.0,198.0,845.0,803.0,135.0,0.0,135.0,2.8,60.6,-1.0,-1.0,-1.0,-1.0,605.0,-1.0,200.0,-1.0,-1.0,-1.0,-1.0,-1.0,-1.0,-1.0
420.0,165.0,746.0,847.0,180.0,0.0,0.0,13.02,53.5,4.85,-1.0,41.6,-1.0,-1.0,-1.0,-1.0,-1.0,-1.0,-1.0,-1.0,-1.0,-1.0,-1.0
360.0,165.0,734.0,835.0,180.0,60.0,0.0,22.02,79.5,5.28,-1.0,39.0,-1.0,-1.0,-1.0,-1.0,-1.0,-1.0,-1.0,-1.0,-1.0,-1.0,-1.0
340.0,153.34,1110.0,680.0,34.0,0.0,0.0,2.04,51.7,-1.0,-1.0,36.372,-1.0,-1.0,-1.0,-1.0,-1.0,-1.0,-1.0,-1.0,-1.0,-1.0,-1.0
440.0,135.52,1107.0,678.0,0.0,44.0,0.0,3.52,68.73,-1.0,-1.0,42.181,-1.0,-1.0,-1.0,-1.0,-1.0,-1.0,-1.0,-1.0,-1.0,-1.0,-1.0
324.0,180.0,945.0,791.0,36.0,0.0,0.0,0.0,32.6,-1.0,-1.0,-1.0,-1.0,-1.0,-1.0,188.0,210.0,600.0,660.0,298.0,650.0,765.0,-1.0
288.0,180.0,945.0,799.0,0.0,0.0,72.0,0.0,40.0,-1.0,-1.0,-1.0,-1.0,-1.0,-1.0,200.0,280.0,700.0,750.0,-1.0,-1.0,-1.0,-1.0
176.0,211.0,951.0,881.0,88.0,0.0,88.0,0.0,36.465,-1.0,-1.0,-1.0,660.0,376.0,-1.0,-1.0,-1.0,-1.0,-1.0,-1.0,-1.0,-1.0,-1.0
231.0,119.0,1047.0,852.0,156.0,0.0,0.0,3.2,55.3,-1.0,-1.0,-1.0,-1.0,-1.0,-1.0,-1.0,-1.0,-1.0,-1.0,-1.0,-1.0,-1.0,1.18
193.0,114.0,1032.0,836.0,197.0,0.0,0.0,2.6,36.8,-1.0,-1.0,-1.0,-1.0,-1.0,-1.0,-1.0,-1.0,-1.0,-1.0,-1.0,-1.0,-1.0,2.81
154.0,117.0,1016.0,818.0,261.0,0.0,0.0,1.9,40.0,-1.0,-1.0,-1.0,-1.0,-1.0,-1.0,-1.0,-1.0,-1.0,-1.0,-1.0,-1.0,-1.0,3.45
200.0,120.0,1200.0,600.0,200.0,0.0,0.0,0.0,56.57,4.2,6.11,-1.0,-1.0,-1.0,-1.0,113.0,169.0,256.0,-1.0,-1.0,-1.0,-1.0,-1.0
200.0,120.0,1200.0,600.0,200.0,0.0,0.0,0.0,59.75,4.59,6.59,-1.0,-1.0,-1.0,-1.0,-1.0,-1.0,-1.0,-1.0,-1.0,-1.0,-1.0,-1.0
200.0,156.0,1200.0,600.0,200.0,0.0,0.0,0.0,41.26,3.69,5.01,-1.0,-1.0,-1.0,-1.0,-1.0,-1.0,-1.0,-1.0,-1.0,-1.0,-1.0,-1.0
200.0,160.0,1270.0,533.0,200.0,0.0,0.0,0.0,24.65,-1.0,3.82,-1.0,-1.0,-1.0,-1.0,-1.0,597.0,-1.0,-1.0,-1.0,-1.0,-1.0,-1.0
240.0,136.0,1270.0,607.0,160.0,0.0,0.0,2.0,38.25,-1.0,4.78,-1.0,-1.0,-1.0,-1.0,-1.0,505.0,-1.0,-1.0,-1.0,-1.0,-1.0,-1.0
280.0,120.0,1270.0,660.0,120.0,0.0,0.0,2.0,55.25,-1.0,5.62,-1.0,-1.0,-1.0,-1.0,-1.0,408.0,-1.0,-1.0,-1.0,-1.0,-1.0,-1.0
423.0,159.8,1056.0,704.0,47.0,0.0,0.0,0.0,46.32,-1.0,-1.0,-1.0,-1.0,-1.0,-1.0,240.0,350.0,449.0,467.0,-1.0,-1.0,-1.0,-1.0
414.0,140.76,1056.0,704.0,0.0,0.0,56.0,0.0,48.45,-1.0,-1.0,-1.0,-1.0,-1.0,-1.0,237.0,340.0,440.0,460.0,-1.0,-1.0,-1.0,-1.0
429.0,140.0,1024.0,844.0,0.0,9.0,0.0,9.636,61.63,-1.0,-1.0,-1.0,-1.0,-1.0,-1.0,-1.0,-1.0,-1.0,-1.0,-1.0,-1.0,-1.0,-1.0
420.0,140.0,1021.0,842.0,0.0,18.0,0.0,9.636,62.03,-1.0,-1.0,-1.0,-1.0,-1.0,-1.0,-1.0,-1.0,-1.0,-1.0,-1.0,-1.0,-1.0,-1.0
411.0,140.0,1018.0,839.0,0.0,27.0,0.0,9.636,62.34,-1.0,-1.0,-1.0,-1.0,-1.0,-1.0,-1.0,-1.0,-1.0,-1.0,-1.0,-1.0,-1.0,-1.0
403.0,140.0,1015.0,837.0,0.0,35.0,0.0,9.636,62.43,-1.0,-1.0,-1.0,-1.0,-1.0,-1.0,-1.0,-1.0,-1.0,-1.0,-1.0,-1.0,-1.0,-1.0
394.0,140.0,1012.0,834.0,0.0,44.0,0.0,9.636,62.54,-1.0,-1.0,-1.0,-1.0,-1.0,-1.0,-1.0,-1.0,-1.0,-1.0,-1.0,-1.0,-1.0,-1.0
383.0,159.81,1049.0,865.0,0.0,60.9167,0.0,9.76617,66.912,-1.0,-1.0,-1.0,-1.0,-1.0,-1.0,-1.0,-1.0,-1.0,-1.0,-1.0,-1.0,-1.0,-1.0
437.0,204.0,785.0,908.0,51.0,26.0,0.0,10.28,34.85,3.73,5.3,26.9,740.0,-1.0,-1.0,-1.0,-1.0,-1.0,-1.0,-1.0,-1.0,-1.0,-1.0
398.0,204.0,785.0,908.0,77.0,39.0,0.0,10.28,35.7,4.0,6.0,28.0,678.0,-1.0,-1.0,-1.0,-1.0,-1.0,-1.0,-1.0,-1.0,-1.0,-1.0
360.0,204.0,785.0,908.0,103.0,51.0,0.0,10.28,38.08,4.58,7.1,31.1,530.0,-1.0,-1.0,-1.0,-1.0,-1.0,-1.0,-1.0,-1.0,-1.0,-1.0
334.0,204.0,785.0,908.0,154.0,26.0,0.0,10.28,29.75,3.25,4.7,26.0,397.0,-1.0,-1.0,-1.0,-1.0,-1.0,-1.0,-1.0,-1.0,-1.0,-1.0
250.0,125.0,1093.0,728.7,125.0,0.0,125.0,11.0,51.17,5.18,7.84,33.96,1435.0,-1.0,-1.0,-1.0,-1.0,-1.0,-1.0,-1.0,-1.0,-1.0,-1.0
125.0,125.0,1068.0,712.0,150.0,75.0,150.0,11.0,51.51,5.1,7.76,34.03,1419.0,-1.0,-1.0,-1.0,-1.0,-1.0,-1.0,-1.0,-1.0,-1.0,-1.0
635.0,247.0,565.0,847.0,0.0,71.0,0.0,2.54,56.1,-1.0,9.4,-1.0,-1.0,-1.0,-1.0,450.0,579.0,613.0,-1.0,-1.0,-1.0,-1.0,-1.0
433.5,153.0,1122.5,653.0,76.5,0.0,0.0,15.3,46.75,-1.0,6.75,-1.0,-1.0,-1.0,-1.0,-1.0,-1.0,-1.0,-1.0,-1.0,-1.0,-1.0,-1.0
450.0,170.0,1100.0,640.0,50.0,0.0,0.0,15.0,42.16,-1.0,6.65,-1.0,-1.0,-1.0,-1.0,-1.0,-1.0,-1.0,-1.0,-1.0,-1.0,-1.0,-1.0
465.5,186.2,1078.0,628.0,24.5,0.0,0.0,14.7,36.12,-1.0,6.16,-1.0,-1.0,-1.0,-1.0,-1.0,-1.0,-1.0,-1.0,-1.0,-1.0,-1.0,-1.0
367.5,186.2,1078.0,628.0,122.5,0.0,0.0,14.7,29.72,-1.0,5.2,-1.0,-1.0,-1.0,-1.0,-1.0,-1.0,-1.0,-1.0,-1.0,-1.0,-1.0,-1.0
408.0,201.6,1058.0,616.0,72.0,0.0,0.0,14.4,29.75,-1.0,4.73,-1.0,-1.0,-1.0,-1.0,-1.0,-1.0,-1.0,-1.0,-1.0,-1.0,-1.0,-1.0
368.0,161.0,1085.2,693.81,92.0,0.0,0.0,1.104,57.37,4.7,-1.0,29.1,-1.0,-1.0,-1.0,180.0,340.0,-1.0,-1.0,-1.0,-1.0,-1.0,-1.0
322.0,161.0,1085.2,693.81,0.0,0.0,138.0,1.104,52.95,4.58,-1.0,28.25,-1.0,-1.0,-1.0,175.0,325.0,-1.0,-1.0,-1.0,-1.0,-1.0,-1.0
300.0,191.0,850.0,761.0,169.0,0.0,0.0,4.2,29.49,2.33,3.02,-1.0,-1.0,-1.0,-1.0,-1.0,-1.0,-1.0,-1.0,-1.0,-1.0,-1.0,-1.0
240.0,180.0,1107.0,665.0,0.0,0.0,160.0,0.0,29.937,-1.0,-1.0,-1.0,-1.0,-1.0,-1.0,80.0,127.0,195.0,220.0,290.0,370.0,328.0,-1.0
140.0,175.0,1132.0,680.0,0.0,0.0,210.0,0.0,22.8395,-1.0,-1.0,-1.0,-1.0,-1.0,-1.0,93.0,158.0,250.0,275.0,500.0,680.0,600.0,-1.0
420.0,156.0,1134.0,610.0,0.0,0.0,180.0,9.6,85.34,5.91,-1.0,-1.0,-1.0,-1.0,-1.0,-1.0,50.0,60.0,71.0,398.0,540.0,580.0,-1.0
450.0,210.0,708.2,901.5,0.0,50.0,0.0,1.3,62.46,-1.0,7.15,-1.0,-1.0,-1.0,-1.0,-1.0,-1.0,-1.0,-1.0,-1.0,-1.0,-1.0,-1.0
450.0,210.0,706.3,898.6,0.0,50.0,0.0,1.7,60.57,-1.0,7.07,-1.0,-1.0,-1.0,-1.0,-1.0,-1.0,-1.0,-1.0,-1.0,-1.0,-1.0,-1.0
302.5,192.5,830.3,792.8,0.0,0.0,247.5,7.43,52.61,-1.0,-1.0,-1.0,-1.0,-1.0,-1.0,-1.0,-1.0,-1.0,-1.0,-1.0,-1.0,-1.0,-1.0
115.0,167.0,924.0,743.0,336.0,0.0,0.0,2.93,13.6,1.8,-1.0,31.0,-1.0,-1.0,-1.0,-1.0,-1.0,-1.0,-1.0,-1.0,-1.0,-1.0,-1.0
300.0,190.0,735.0,910.0,200.0,0.0,0.0,6.75,38.25,-1.0,-1.0,-1.0,-1.0,-1.0,-1.0,-1.0,-1.0,-1.0,-1.0,-1.0,-1.0,-1.0,-1.0
360.0,180.0,735.0,990.0,0.0,90.0,0.0,8.0,56.1,-1.0,-1.0,-1.0,-1.0,-1.0,-1.0,-1.0,-1.0,-1.0,-1.0,-1.0,-1.0,-1.0,-1.0
245.0,85.75,1035.0,740.0,105.0,0.0,0.0,6.3,31.67,-1.0,-1.0,-1.0,-1.0,-1.0,-1.0,-1.0,-1.0,-1.0,-1.0,-1.0,-1.0,-1.0,-1.0
297.5,104.125,1035.0,740.0,0.0,26.25,26.25,6.3,55.02,-1.0,-1.0,-1.0,-1.0,-1.0,-1.0,-1.0,-1.0,-1.0,-1.0,-1.0,-1.0,-1.0,-1.0
243.0,145.0,1165.52,676.0,0.0,0.0,243.0,4.2525,83.81,-1.0,-1.0,-1.0,-1.0,-1.0,-1.0,-1.0,-1.0,-1.0,-1.0,-1.0,-1.0,-1.0,-1.0
291.0,145.0,1153.57,646.0,194.0,0.0,0.0,5.0925,49.3,-1.0,-1.0,-1.0,-1.0,-1.0,-1.0,-1.0,-1.0,-1.0,-1.0,-1.0,-1.0,-1.0,-1.0
350.0,153.0,966.0,706.0,100.0,0.0,0.0,9.5,48.96,-1.0,-1.0,37.0,-1.0,-1.0,-1.0,-1.0,-1.0,-1.0,-1.0,-1.0,-1.0,-1.0,-1.0
350.0,153.0,1087.0,706.0,100.0,0.0,0.0,9.5,45.9,-1.0,-1.0,45.0,-1.0,-1.0,-1.0,-1.0,-1.0,-1.0,-1.0,-1.0,-1.0,-1.0,-1.0
350.0,153.0,982.0,706.0,100.0,0.0,0.0,9.5,42.5,-1.0,-1.0,30.0,-1.0,-1.0,-1.0,-1.0,-1.0,-1.0,-1.0,-1.0,-1.0,-1.0,-1.0
440.0,209.0,708.7,748.0,110.0,0.0,0.0,9.35,47.26,3.0,-1.0,-1.0,-1.0,-1.0,-1.0,-1.0,-1.0,-1.0,-1.0,-1.0,-1.0,-1.0,-1.0
200.0,90.0,1014.0,740.0,200.0,0.0,0.0,0.5,36.55,-1.0,-1.0,-1.0,1154.0,-1.0,-1.0,-1.0,-1.0,-1.0,-1.0,-1.0,-1.0,-1.0,-1.0
269.45,190.0,1396.0,698.0,31.7,15.85,0.0,0.0,17.76,-1.0,3.07,-1.0,-1.0,-1.0,-1.0,-1.0,-1.0,-1.0,-1.0,-1.0,-1.0,-1.0,-1.0
237.75,190.0,1396.0,698.0,31.7,47.55,0.0,0.0,16.97,-1.0,-1.0,-1.0,-1.0,-1.0,-1.0,-1.0,-1.0,-1.0,-1.0,-1.0,-1.0,-1.0,-1.0
237.75,190.0,1396.0,698.0,63.4,15.85,0.0,0.0,16.38,-1.0,-1.0,-1.0,-1.0,-1.0,-1.0,-1.0,-1.0,-1.0,-1.0,-1.0,-1.0,-1.0,-1.0
421.6,158.0,1029.0,686.0,105.4,0.0,0.0,10.54,60.18,-1.0,-1.0,-1.0,-1.0,-1.0,-1.0,-1.0,-1.0,-1.0,-1.0,-1.0,-1.0,-1.0,-1.0
474.3,158.0,1029.0,686.0,0.0,52.7,0.0,10.54,76.67,-1.0,-1.0,-1.0,-1.0,-1.0,-1.0,-1.0,-1.0,-1.0,-1.0,-1.0,-1.0,-1.0,-1.0
337.28,158.0,1029.0,686.0,158.1,31.62,0.0,10.54,52.27,-1.0,-1.0,-1.0,-1.0,-1.0,-1.0,-1.0,-1.0,-1.0,-1.0,-1.0,-1.0,-1.0,-1.0
200.0,160.0,1104.0,736.0,0.0,0.0,200.0,2.0,21.505,1.6,4.25,-1.0,-1.0,-1.0,-1.0,-1.0,-1.0,-1.0,-1.0,-1.0,-1.0,-1.0,-1.0
304.56,160.0,1270.0,605.0,84.6,33.84,169.2,3.6,49.946,4.27,5.3,-1.0,-1.0,-1.0,-1.0,-1.0,-1.0,-1.0,-1.0,-1.0,-1.0,-1.0,-1.0
262.26,160.0,1270.0,605.0,126.9,33.84,211.5,3.6,42.262,3.66,4.9,-1.0,-1.0,-1.0,-1.0,-1.0,-1.0,-1.0,-1.0,-1.0,-1.0,-1.0,-1.0
450.0,184.5,1201.5,306.0,0.0,0.0,306.0,3.78,34.0,3.0,4.85,-1.0,-1.0,-1.0,-1.0,-1.0,-1.0,-1.0,-1.0,-1.0,-1.0,-1.0,-1.0
360.0,184.5,1201.5,306.0,90.0,0.0,306.0,7.56,27.71,2.52,4.48,-1.0,-1.0,-1.0,-1.0,-1.0,-1.0,-1.0,-1.0,-1.0,-1.0,-1.0,-1.0
399.0,151.62,872.0,872.0,0.0,21.0,0.0,2.016,65.45,-1.0,-1.0,-1.0,2100.0,1000.0,800.0,-1.0,-1.0,-1.0,-1.0,-1.0,-1.0,-1.0,-1.0
294.0,111.72,870.0,870.0,0.0,0.0,126.0,2.016,46.75,-1.0,-1.0,-1.0,5950.0,2600.0,1800.0,-1.0,-1.0,-1.0,-1.0,-1.0,-1.0,-1.0,-1.0
325.5,123.69,868.0,868.0,0.0,31.5,63.0,2.016,57.8,-1.0,-1.0,-1.0,2285.0,800.0,800.0,-1.0,-1.0,-1.0,-1.0,-1.0,-1.0,-1.0,-1.0
199.5,75.81,865.0,865.0,0.0,10.5,210.0,2.016,31.53,-1.0,-1.0,-1.0,3290.0,995.0,560.0,-1.0,-1.0,-1.0,-1.0,-1.0,-1.0,-1.0,-1.0
144.0,129.0,1115.0,770.0,127.0,0.0,16.0,2.296,33.5,3.2,-1.0,-1.0,5070.0,4250.0,-1.0,-1.0,-1.0,-1.0,-1.0,-1.0,-1.0,-1.0,-1.0
78.0,128.0,1115.0,770.0,127.0,0.0,78.0,2.264,39.2,3.91,-1.0,-1.0,3430.0,2800.0,-1.0,-1.0,-1.0,-1.0,-1.0,-1.0,-1.0,-1.0,-1.0
111.0,128.0,1115.0,770.0,127.0,0.0,47.0,2.28,37.0,3.52,-1.0,-1.0,4060.0,3260.0,-1.0,-1.0,-1.0,-1.0,-1.0,-1.0,-1.0,-1.0,-1.0
240.0,152.0,1097.0,731.2,160.0,0.0,0.0,0.0,46.1,4.02,6.0,-1.0,-1.0,-1.0,-1.0,-1.0,-1.0,-1.0,-1.0,-1.0,-1.0,-1.0,-1.0
260.0,152.0,1097.0,731.2,80.0,0.0,60.0,0.0,42.5,4.15,8.0,45.77,-1.0,-1.0,-1.0,-1.0,-1.0,-1.0,-1.0,-1.0,-1.0,-1.0,-1.0
234.72,179.0,1109.0,675.0,65.2,26.08,0.0,0.0,23.375,-1.0,-1.0,-1.0,-1.0,-1.0,-1.0,-1.0,-1.0,-1.0,-1.0,-1.0,-1.0,-1.0,-1.0
484.23,185.45,794.48,883.23,0.0,30.9084,0.0,11.333,60.99,-1.0,-1.0,-1.0,-1.0,-1.0,-1.0,-1.0,-1.0,-1.0,-1.0,-1.0,-1.0,-1.0,-1.0
489.38,185.45,774.62,861.15,15.4542,10.3028,0.0,11.333,51.66,-1.0,-1.0,-1.0,-1.0,-1.0,-1.0,-1.0,-1.0,-1.0,-1.0,-1.0,-1.0,-1.0,-1.0
448.17,185.45,768.59,854.45,15.4542,51.514,0.0,11.333,54.54,-1.0,-1.0,-1.0,-1.0,-1.0,-1.0,-1.0,-1.0,-1.0,-1.0,-1.0,-1.0,-1.0,-1.0
453.32,185.45,748.23,832.37,30.9084,30.9084,0.0,11.333,54.56,-1.0,-1.0,-1.0,-1.0,-1.0,-1.0,-1.0,-1.0,-1.0,-1.0,-1.0,-1.0,-1.0,-1.0
419.84,185.45,745.3,828.56,84.9981,10.3028,0.0,11.3331,54.0,-1.0,-1.0,-1.0,-1.0,-1.0,-1.0,-1.0,-1.0,-1.0,-1.0,-1.0,-1.0,-1.0,-1.0
378.63,185.45,739.27,821.85,84.9981,51.514,0.0,11.3331,56.06,-1.0,-1.0,-1.0,-1.0,-1.0,-1.0,-1.0,-1.0,-1.0,-1.0,-1.0,-1.0,-1.0,-1.0
370.9,185.45,724.89,805.87,113.3308,30.9084,0.0,11.3331,56.04,-1.0,-1.0,-1.0,-1.0,-1.0,-1.0,-1.0,-1.0,-1.0,-1.0,-1.0,-1.0,-1.0,-1.0
363.17,185.45,710.51,789.88,141.6635,10.3028,0.0,11.333,55.04,-1.0,-1.0,-1.0,-1.0,-1.0,-1.0,-1.0,-1.0,-1.0,-1.0,-1.0,-1.0,-1.0,-1.0
321.96,185.45,704.48,783.17,141.6635,51.514,0.0,11.333,58.54,-1.0,-1.0,-1.0,-1.0,-1.0,-1.0,-1.0,-1.0,-1.0,-1.0,-1.0,-1.0,-1.0,-1.0
314.24,185.45,690.1,767.19,169.9962,30.9084,0.0,11.3332,56.06,-1.0,-1.0,-1.0,-1.0,-1.0,-1.0,-1.0,-1.0,-1.0,-1.0,-1.0,-1.0,-1.0,-1.0
306.51,185.45,675.71,751.2,198.3289,10.3028,0.0,11.3331,51.41,-1.0,-1.0,-1.0,-1.0,-1.0,-1.0,-1.0,-1.0,-1.0,-1.0,-1.0,-1.0,-1.0,-1.0
265.3,185.45,669.68,744.49,198.3289,51.514,0.0,11.3331,52.67,-1.0,-1.0,-1.0,-1.0,-1.0,-1.0,-1.0,-1.0,-1.0,-1.0,-1.0,-1.0,-1.0,-1.0
257.57,185.45,655.3,728.51,226.6616,30.9084,0.0,11.33308,51.19,-1.0,-1.0,-1.0,-1.0,-1.0,-1.0,-1.0,-1.0,-1.0,-1.0,-1.0,-1.0,-1.0,-1.0
221.51,185.45,623.52,693.18,283.327,10.3028,0.0,11.3331,46.1,-1.0,-1.0,-1.0,-1.0,-1.0,-1.0,-1.0,-1.0,-1.0,-1.0,-1.0,-1.0,-1.0,-1.0
180.3,185.45,617.5,686.47,283.327,51.514,0.0,11.3331,47.47,-1.0,-1.0,-1.0,-1.0,-1.0,-1.0,-1.0,-1.0,-1.0,-1.0,-1.0,-1.0,-1.0,-1.0
248.0,226.24,806.0,853.0,124.0,0.0,124.0,5.0,25.29,-1.0,-1.0,30.83,-1.0,-1.0,-1.0,-1.0,290.0,400.0,420.0,257.68,-1.0,-1.0,-1.0
124.0,226.24,806.0,853.0,159.0,53.0,159.0,5.0,29.13,-1.0,-1.0,31.8,-1.0,-1.0,-1.0,-1.0,470.0,600.0,655.0,258.43,-1.0,-1.0,-1.0
311.0,155.0,1060.0,706.0,66.0,0.0,66.0,0.0,49.72,-1.0,-1.0,-1.0,-1.0,-1.0,-1.0,-1.0,-1.0,-1.0,-1.0,-1.0,-1.0,-1.0,-1.0
419.9,158.0,1151.0,647.0,74.1,0.0,0.0,4.94,54.4,5.62,-1.0,-1.0,-1.0,-1.0,-1.0,-1.0,-1.0,-1.0,-1.0,-1.0,-1.0,-1.0,-1.0
464.4,158.0,1151.0,647.0,0.0,29.6,0.0,4.94,54.99,5.76,-1.0,-1.0,-1.0,-1.0,-1.0,-1.0,-1.0,-1.0,-1.0,-1.0,-1.0,-1.0,-1.0
390.3,158.0,1151.0,647.0,74.1,29.6,0.0,4.94,57.29,5.79,-1.0,-1.0,-1.0,-1.0,-1.0,-1.0,-1.0,-1.0,-1.0,-1.0,-1.0,-1.0,-1.0
225.625,190.0,734.2,952.0,47.5,11.875,190.0,1.1875,40.4,-1.0,-1.0,-1.0,-1.0,-1.0,-1.0,-1.0,-1.0,-1.0,-1.0,-1.0,-1.0,-1.0,-1.0
154.375,190.0,730.4,947.1,71.25,11.875,237.5,1.1875,34.8,-1.0,-1.0,-1.0,-1.0,-1.0,-1.0,-1.0,-1.0,-1.0,-1.0,-1.0,-1.0,-1.0,-1.0
261.25,190.0,733.7,951.4,47.5,23.75,142.5,1.425,39.9,-1.0,-1.0,-1.0,-1.0,-1.0,-1.0,-1.0,-1.0,-1.0,-1.0,-1.0,-1.0,-1.0,-1.0
190.0,190.0,727.8,943.8,71.25,23.75,190.0,1.425,33.0,-1.0,-1.0,-1.0,-1.0,-1.0,-1.0,-1.0,-1.0,-1.0,-1.0,-1.0,-1.0,-1.0,-1.0
118.75,190.0,722.7,937.1,95.0,23.75,237.5,1.425,31.1,-1.0,-1.0,-1.0,-1.0,-1.0,-1.0,-1.0,-1.0,-1.0,-1.0,-1.0,-1.0,-1.0,-1.0
225.625,190.0,727.7,943.7,71.25,35.625,142.5,1.6625,38.5,-1.0,-1.0,-1.0,-1.0,-1.0,-1.0,-1.0,-1.0,-1.0,-1.0,-1.0,-1.0,-1.0,-1.0
154.375,190.0,722.2,936.4,95.0,35.625,190.0,1.6625,34.5,-1.0,-1.0,-1.0,-1.0,-1.0,-1.0,-1.0,-1.0,-1.0,-1.0,-1.0,-1.0,-1.0,-1.0
225.625,190.0,752.5,937.1,47.5,11.875,190.0,1.1875,30.89,3.18,6.89,-1.0,255.0,-1.0,-1.0,-1.0,-1.0,-1.0,-1.0,-1.0,-1.0,-1.0,-1.0
118.75,180.5,742.2,924.2,71.25,23.75,237.5,1.579375,24.4,2.36,5.45,-1.0,260.0,-1.0,-1.0,-1.0,-1.0,-1.0,-1.0,-1.0,-1.0,-1.0,-1.0
225.625,190.0,695.7,919.7,47.5,11.875,190.0,1.1875,33.93,3.25,7.05,-1.0,419.0,-1.0,-1.0,-1.0,-1.0,-1.0,-1.0,-1.0,-1.0,-1.0,-1.0
118.75,180.5,686.4,907.4,71.25,23.75,237.5,1.579375,25.15,2.48,5.66,-1.0,300.0,-1.0,-1.0,-1.0,-1.0,-1.0,-1.0,-1.0,-1.0,-1.0,-1.0
138.0,191.4,1107.0,660.0,92.0,46.0,184.0,1.84,40.0,2.93,4.8,31.8,-1.0,-1.0,-1.0,-1.0,-1.0,-1.0,-1.0,-1.0,-1.0,-1.0,-1.0
138.0,208.2,990.0,660.0,92.0,46.0,184.0,1.84,38.1,2.89,4.83,25.0,-1.0,-1.0,-1.0,-1.0,-1.0,-1.0,-1.0,-1.0,-1.0,-1.0,-1.0
400.7,200.4,856.5,756.4,100.2,0.0,0.0,2.8,46.57,-1.0,-1.0,30.67,-1.0,-1.0,-1.0,-1.0,-1.0,-1.0,-1.0,-1.0,-1.0,-1.0,-1.0
364.2,273.2,778.6,687.5,91.1,0.0,0.0,0.0,27.97,-1.0,-1.0,23.86,-1.0,-1.0,-1.0,-1.0,-1.0,-1.0,-1.0,-1.0,-1.0,-1.0,-1.0
289.0,173.46,1185.0,790.0,124.0,0.0,0.0,1.45,42.5,3.8,5.07,36.6,-1.0,-1.0,-1.0,-1.0,-1.0,-1.0,-1.0,-1.0,-1.0,-1.0,-1.0
267.0,186.9,1307.0,637.0,178.0,0.0,0.0,1.11,34.85,3.3,4.5,33.75,-1.0,-1.0,-1.0,-1.0,-1.0,-1.0,-1.0,-1.0,-1.0,-1.0,-1.0
372.33,186.16,948.54,636.97,93.08,0.0,0.0,2.34,50.2,-1.0,-1.0,-1.0,-1.0,-1.0,-1.0,-1.0,-1.0,-1.0,-1.0,-1.0,-1.0,-1.0,-1.0
187.0,121.0,1289.0,790.0,51.0,10.2,153.0,4.2,64.6,-1.0,-1.0,-1.0,-1.0,-1.0,-1.0,-1.0,-1.0,-1.0,-1.0,-1.0,-1.0,-1.0,-1.0
286.0,168.0,820.0,807.0,188.0,0.0,0.0,1.69,83.5,-1.0,-1.0,-1.0,-1.0,-1.0,-1.0,-1.0,-1.0,-1.0,-1.0,-1.0,-1.0,-1.0,-1.0
284.4,168.0,820.0,807.0,189.6,0.0,0.0,1.69,87.0,-1.0,-1.0,-1.0,-1.0,-1.0,-1.0,-1.0,-1.0,-1.0,-1.0,-1.0,-1.0,-1.0,-1.0
284.4,168.0,820.0,807.0,0.0,0.0,189.6,1.69,76.6,-1.0,-1.0,-1.0,-1.0,-1.0,-1.0,-1.0,-1.0,-1.0,-1.0,-1.0,-1.0,-1.0,-1.0
284.4,168.0,820.0,807.0,0.0,0.0,189.6,1.69,83.5,-1.0,-1.0,-1.0,-1.0,-1.0,-1.0,-1.0,-1.0,-1.0,-1.0,-1.0,-1.0,-1.0,-1.0
315.0,88.2,1504.0,75.2,0.0,35.0,0.0,4.375,29.75,2.38,6.5,-1.0,-1.0,-1.0,-1.0,-1.0,-1.0,-1.0,-1.0,-1.0,-1.0,-1.0,-1.0
269.0,134.4,1587.0,0.0,38.0,38.0,0.0,0.0,14.11,4.2,1.54,-1.0,-1.0,-1.0,-1.0,-1.0,-1.0,-1.0,-1.0,-1.0,-1.0,-1.0,2.7
357.0,178.5,915.0,865.0,0.0,0.0,153.0,4.5,46.5,3.85,-1.0,29.8,-1.0,-1.0,-1.0,-1.0,-1.0,-1.0,-1.0,-1.0,-1.0,-1.0,-1.0
271.0,221.26,768.0,834.0,135.5,0.0,135.5,8.13,30.838,-1.0,4.56,-1.0,-1.0,-1.0,-1.0,-1.0,-1.0,-1.0,-1.0,-1.0,-1.0,-1.0,-1.0
518.0,152.0,1097.0,520.0,0.0,0.0,222.0,8.88,81.362,6.23,6.87,-1.0,455.0,-1.0,-1.0,-1.0,-1.0,-1.0,-1.0,-1.0,-1.0,-1.0,-1.0
681.0,152.0,1092.0,518.0,0.0,59.0,0.0,8.88,103.598,7.02,7.61,-1.0,432.0,-1.0,-1.0,-1.0,-1.0,-1.0,-1.0,-1.0,-1.0,-1.0,-1.0
607.0,151.0,1069.0,507.0,0.0,133.0,0.0,8.88,112.302,7.72,11.41,-1.0,260.0,-1.0,-1.0,-1.0,-1.0,-1.0,-1.0,-1.0,-1.0,-1.0,-1.0
355.0,151.0,1069.0,507.0,0.0,89.0,296.0,8.88,122.5785,8.26,12.88,-1.0,265.0,-1.0,-1.0,-1.0,-1.0,-1.0,-1.0,-1.0,-1.0,-1.0,-1.0
227.5,140.0,1314.2,744.3,87.5,35.0,0.0,3.5,32.1725,4.13,-1.0,-1.0,-1.0,-1.0,-1.0,-1.0,-1.0,-1.0,-1.0,-1.0,-1.0,-1.0,-1.0
227.5,140.0,1314.2,744.3,35.0,87.5,0.0,3.5,29.1125,3.94,-1.0,-1.0,-1.0,-1.0,-1.0,-1.0,-1.0,-1.0,-1.0,-1.0,-1.0,-1.0,-1.0
227.5,140.0,1314.2,744.3,70.0,0.0,52.0,3.5,29.9965,3.68,-1.0,-1.0,-1.0,-1.0,-1.0,-1.0,-1.0,-1.0,-1.0,-1.0,-1.0,-1.0,-1.0
484.2,185.5,794.5,883.2,0.0,30.906,0.0,11.3323,60.9025,4.99,-1.0,-1.0,1030.0,-1.0,-1.0,-1.0,-1.0,-1.0,-1.0,-1.0,-1.0,-1.0,-1.0
489.4,185.5,774.6,861.1,15.453,10.302,0.0,11.33341,51.663,-1.0,-1.0,-1.0,-1.0,-1.0,-1.0,-1.0,-1.0,-1.0,-1.0,-1.0,-1.0,-1.0,-1.0
448.2,185.5,768.6,854.4,15.453,51.51,0.0,11.3336,54.536,-1.0,-1.0,-1.0,-1.0,-1.0,-1.0,-1.0,-1.0,-1.0,-1.0,-1.0,-1.0,-1.0,-1.0
453.3,185.5,748.7,832.4,30.906,30.906,0.0,11.3325,54.5615,-1.0,-1.0,-1.0,-1.0,-1.0,-1.0,-1.0,-1.0,-1.0,-1.0,-1.0,-1.0,-1.0,-1.0
419.8,185.5,745.3,828.6,84.9915,10.302,0.0,11.3321,54.0005,-1.0,-1.0,-1.0,-1.0,-1.0,-1.0,-1.0,-1.0,-1.0,-1.0,-1.0,-1.0,-1.0,-1.0
378.6,185.5,739.3,821.9,84.9915,51.51,0.0,11.3322,56.0575,-1.0,-1.0,-1.0,-1.0,-1.0,-1.0,-1.0,-1.0,-1.0,-1.0,-1.0,-1.0,-1.0,-1.0
370.9,185.5,724.9,805.9,113.322,30.906,0.0,11.3328,56.0405,-1.0,-1.0,-1.0,-1.0,-1.0,-1.0,-1.0,-1.0,-1.0,-1.0,-1.0,-1.0,-1.0,-1.0
363.2,185.5,710.5,789.9,141.6525,10.302,0.0,11.3334,55.0375,-1.0,-1.0,-1.0,-1.0,-1.0,-1.0,-1.0,-1.0,-1.0,-1.0,-1.0,-1.0,-1.0,-1.0
322.0,185.5,704.5,783.2,141.6525,51.51,0.0,11.3336,58.5395,-1.0,-1.0,-1.0,-1.0,-1.0,-1.0,-1.0,-1.0,-1.0,-1.0,-1.0,-1.0,-1.0,-1.0
314.2,185.5,690.1,767.2,169.983,30.906,0.0,11.332,56.0575,-1.0,-1.0,-1.0,-1.0,-1.0,-1.0,-1.0,-1.0,-1.0,-1.0,-1.0,-1.0,-1.0,-1.0
306.5,185.5,675.7,751.2,198.3135,10.302,0.0,11.3325,51.408,-1.0,-1.0,-1.0,-1.0,-1.0,-1.0,-1.0,-1.0,-1.0,-1.0,-1.0,-1.0,-1.0,-1.0
265.3,185.5,669.7,744.5,198.3135,51.51,0.0,11.3327,52.6745,-1.0,-1.0,-1.0,-1.0,-1.0,-1.0,-1.0,-1.0,-1.0,-1.0,-1.0,-1.0,-1.0,-1.0
257.6,185.5,655.3,728.5,226.644,30.906,0.0,11.3333,51.187,-1.0,-1.0,-1.0,-1.0,-1.0,-1.0,-1.0,-1.0,-1.0,-1.0,-1.0,-1.0,-1.0,-1.0
221.5,185.5,623.5,693.2,283.305,10.302,0.0,11.3324,46.104,-1.0,-1.0,-1.0,-1.0,-1.0,-1.0,-1.0,-1.0,-1.0,-1.0,-1.0,-1.0,-1.0,-1.0
180.3,185.5,617.5,686.5,283.305,51.51,0.0,11.33253,47.4725,-1.0,-1.0,-1.0,-1.0,-1.0,-1.0,-1.0,-1.0,-1.0,-1.0,-1.0,-1.0,-1.0,-1.0
154.375,190.0,746.8,930.0,71.25,11.875,237.5,1.425,32.3,-1.0,-1.0,-1.0,-1.0,-1.0,-1.0,-1.0,-1.0,62.5,105.0,-1.0,-1.0,-1.0,-1.0
106.875,190.0,741.7,923.7,95.0,35.625,237.5,1.425,28.4,-1.0,-1.0,-1.0,-1.0,-1.0,-1.0,-1.0,-1.0,76.0,140.0,-1.0,-1.0,-1.0,-1.0
324.0,260.9,825.0,631.0,0.0,23.0,116.0,0.0,31.705,2.84,-1.0,-1.0,-1.0,-1.0,-1.0,-1.0,-1.0,-1.0,-1.0,-1.0,-1.0,-1.0,-1.0
300.7,271.7,813.0,631.0,0.0,46.3,116.0,0.0,31.535,-1.0,-1.0,-1.0,-1.0,-1.0,-1.0,-1.0,-1.0,-1.0,-1.0,-1.0,-1.0,-1.0,-1.0
277.5,293.5,791.0,631.0,0.0,69.5,116.0,0.0,29.75,-1.0,-1.0,-1.0,-1.0,-1.0,-1.0,-1.0,-1.0,-1.0,-1.0,-1.0,-1.0,-1.0,-1.0
372.0,200.0,737.0,937.5,93.0,0.0,0.0,3.72,35.955,3.6,4.72,-1.0,-1.0,-1.0,-1.0,-1.0,-1.0,-1.0,-1.0,-1.0,-1.0,-1.0,-1.0
441.75,200.0,737.0,937.5,0.0,23.25,0.0,3.72,35.02,3.53,4.95,-1.0,-1.0,-1.0,-1.0,-1.0,-1.0,-1.0,-1.0,-1.0,-1.0,-1.0,-1.0
348.75,200.0,737.0,937.5,0.0,116.25,0.0,3.72,33.83,3.5,4.5,-1.0,-1.0,-1.0,-1.0,-1.0,-1.0,-1.0,-1.0,-1.0,-1.0,-1.0,-1.0
348.75,200.0,737.0,937.5,23.25,93.0,0.0,3.72,37.91,3.63,4.78,-1.0,-1.0,-1.0,-1.0,-1.0,-1.0,-1.0,-1.0,-1.0,-1.0,-1.0,-1.0
257.0,216.8,754.0,800.0,102.0,52.0,102.0,4.1,35.309,-1.0,-1.0,-1.0,-1.0,-1.0,-1.0,-1.0,-1.0,-1.0,-1.0,-1.0,-1.0,-1.0,-1.0
260.0,206.7,849.4,785.0,260.0,0.0,0.0,5.72,15.334,-1.0,-1.0,-1.0,-1.0,-1.0,-1.0,-1.0,-1.0,-1.0,-1.0,-1.0,-1.0,-1.0,-1.0
130.0,206.7,849.4,785.0,195.0,0.0,195.0,4.68,16.711,-1.0,-1.0,-1.0,-1.0,-1.0,-1.0,-1.0,-1.0,-1.0,-1.0,-1.0,-1.0,-1.0,-1.0
260.0,214.9,832.0,785.0,104.0,52.0,104.0,6.86,42.024,-1.0,-1.0,-1.0,-1.0,-1.0,-1.0,-1.0,-1.0,-1.0,-1.0,-1.0,-1.0,-1.0,-1.0
113.7,214.9,832.0,785.0,341.25,0.0,0.0,4.01,11.8065,-1.0,-1.0,-1.0,-1.0,-1.0,-1.0,-1.0,-1.0,-1.0,-1.0,-1.0,-1.0,-1.0,-1.0
101.0,214.9,832.0,785.0,151.5,0.0,151.5,1.21,10.2595,-1.0,-1.0,-1.0,-1.0,-1.0,-1.0,-1.0,-1.0,-1.0,-1.0,-1.0,-1.0,-1.0,-1.0
269.45,148.99,1268.0,634.0,0.0,47.55,0.0,0.0,26.35,3.3,-1.0,-1.0,-1.0,-1.0,-1.0,-1.0,-1.0,-1.0,-1.0,-1.0,-1.0,-1.0,-1.0
301.15,158.5,1268.0,634.0,7.93,7.93,0.0,0.0,27.2,3.43,-1.0,-1.0,-1.0,-1.0,-1.0,-1.0,-1.0,-1.0,-1.0,-1.0,-1.0,-1.0,-1.0
320.0,180.0,865.0,937.0,80.0,0.0,0.0,0.0,22.1,2.25,-1.0,24.0,3950.0,2000.0,-1.0,-1.0,-1.0,-1.0,-1.0,-1.0,-1.0,-1.0,-1.0
340.0,180.0,863.0,935.0,40.0,20.0,0.0,0.0,23.8,2.47,-1.0,28.3,2400.0,1500.0,-1.0,-1.0,-1.0,-1.0,-1.0,-1.0,-1.0,-1.0,-1.0
300.0,156.0,1779.0,1300.0,100.0,0.0,0.0,2.4,36.45,-1.0,-1.0,37.0,-1.0,-1.0,-1.0,-1.0,-1.0,-1.0,-1.0,-1.0,-1.0,-1.0,-1.0
160.0,156.0,1809.0,1372.0,0.0,0.0,240.0,2.0,31.59,-1.0,-1.0,38.0,-1.0,-1.0,-1.0,-1.0,-1.0,-1.0,-1.0,-1.0,-1.0,-1.0,-1.0
324.0,162.0,1027.0,750.0,81.0,0.0,0.0,0.0,44.6,3.5,-1.0,26.3,-1.0,-1.0,-1.0,-1.0,-1.0,-1.0,-1.0,-1.0,-1.0,-1.0,-1.0
155.0,155.0,1037.0,757.0,116.0,0.0,116.0,0.0,36.3,3.3,-1.0,22.9,-1.0,-1.0,-1.0,-1.0,-1.0,-1.0,-1.0,-1.0,-1.0,-1.0,-1.0
433.0,155.0,1094.0,677.0,0.0,23.0,0.0,0.0,72.8,4.4,-1.0,33.4,-1.0,-1.0,-1.0,-1.0,-1.0,-1.0,-1.0,-1.0,-1.0,-1.0,-1.0
137.0,155.0,1083.0,670.0,0.0,13.0,296.0,0.0,55.7,4.2,-1.0,21.7,-1.0,-1.0,-1.0,-1.0,-1.0,-1.0,-1.0,-1.0,-1.0,-1.0,-1.0
221.0,155.0,1009.0,624.0,138.0,28.0,166.0,0.0,57.4,5.3,-1.0,24.6,-1.0,-1.0,-1.0,-1.0,-1.0,-1.0,-1.0,-1.0,-1.0,-1.0,-1.0
247.0,171.0,1130.94,679.32,114.0,19.0,0.0,0.0,40.8,2.78,4.18,-1.0,-1.0,-1.0,-1.0,-1.0,-1.0,-1.0,-1.0,-1.0,-1.0,-1.0,-1.0
199.5,171.0,1130.94,679.32,152.0,28.5,0.0,0.0,48.45,3.2,4.8,-1.0,-1.0,-1.0,-1.0,-1.0,-1.0,-1.0,-1.0,-1.0,-1.0,-1.0,-1.0
322.0,200.48,1228.0,611.0,36.0,0.0,0.0,0.0,35.275,-1.0,-1.0,-1.0,-1.0,-1.0,-1.0,-1.0,-1.0,-1.0,-1.0,-1.0,-1.0,-1.0,-1.0
247.0,197.68,1212.0,604.0,106.0,0.0,0.0,0.0,28.475,-1.0,-1.0,-1.0,-1.0,-1.0,-1.0,-1.0,-1.0,-1.0,-1.0,-1.0,-1.0,-1.0,-1.0
300.0,200.0,860.0,845.0,200.0,0.0,0.0,9.0,22.1,1.7,-1.0,13.0,1240.0,-1.0,-1.0,-1.0,-1.0,-1.0,-1.0,-1.0,-1.0,-1.0,-1.0
388.5,159.6,865.0,865.0,0.0,31.5,0.0,2.268,66.47,-1.0,-1.0,-1.0,1500.0,730.0,728.0,-1.0,-1.0,-1.0,-1.0,-1.0,-1.0,-1.0,-1.0
346.5,159.6,864.0,864.0,63.0,10.5,0.0,1.68,53.125,-1.0,-1.0,-1.0,3880.0,1230.0,1000.0,-1.0,-1.0,-1.0,-1.0,-1.0,-1.0,-1.0,-1.0
273.0,159.6,851.0,851.0,126.0,21.0,0.0,1.386,50.745,-1.0,-1.0,-1.0,3650.0,1000.0,650.0,-1.0,-1.0,-1.0,-1.0,-1.0,-1.0,-1.0,-1.0
206.0,142.5,1308.0,697.0,169.0,0.0,0.0,1.5,51.935,6.5,5.3,-1.0,-1.0,-1.0,-1.0,-1.0,-1.0,-1.0,-1.0,-1.0,-1.0,-1.0,-1.0
430.0,195.0,795.0,971.0,0.0,20.0,0.0,4.68,56.95,-1.0,-1.0,-1.0,-1.0,-1.0,-1.0,-1.0,-1.0,-1.0,-1.0,-1.0,-1.0,-1.0,-1.0
287.2,158.0,1110.39,796.0,0.0,71.8,0.0,0.0,25.33,3.2,3.8,27.0,-1.0,-1.0,-1.0,-1.0,-1.0,-1.0,-1.0,-1.0,-1.0,-1.0,-1.0
675.0,225.0,570.0,688.0,0.0,75.0,0.0,11.25,50.15,4.5,-1.0,-1.0,842.0,507.0,-1.0,-1.0,-1.0,-1.0,-1.0,-1.0,-1.0,-1.0,-1.0
406.0,189.0,655.7,987.1,0.0,22.0,22.0,1.57,32.5,3.03,3.75,30.13,790.0,-1.0,-1.0,-1.0,-1.0,-1.0,-1.0,-1.0,-1.0,-1.0,-1.0
315.0,189.0,651.7,981.2,0.0,45.0,90.0,1.8,36.0,3.75,4.25,33.2,397.0,-1.0,-1.0,-1.0,-1.0,-1.0,-1.0,-1.0,-1.0,-1.0,-1.0
225.0,189.0,649.7,977.9,0.0,45.0,180.0,2.02,30.0,2.7,3.6,28.75,220.0,-1.0,-1.0,-1.0,-1.0,-1.0,-1.0,-1.0,-1.0,-1.0,-1.0
135.0,189.0,646.6,973.3,0.0,45.0,270.0,2.02,23.5,2.0,3.11,25.8,230.0,-1.0,-1.0,-1.0,-1.0,-1.0,-1.0,-1.0,-1.0,-1.0,-1.0
524.7,186.56,1235.0,523.0,58.3,0.0,0.0,4.1,59.075,-1.0,-1.0,-1.0,-1.0,-1.0,-1.0,-1.0,-1.0,-1.0,-1.0,-1.0,-1.0,-1.0,-1.0
466.4,205.216,1235.0,523.0,116.6,0.0,58.3,4.05,57.8,-1.0,-1.0,-1.0,-1.0,-1.0,-1.0,-1.0,-1.0,-1.0,-1.0,-1.0,-1.0,-1.0,-1.0
466.4,191.232,1235.0,523.0,0.0,14.6,116.6,4.65,63.75,-1.0,-1.0,-1.0,-1.0,-1.0,-1.0,-1.0,-1.0,-1.0,-1.0,-1.0,-1.0,-1.0,-1.0
408.1,191.232,1235.0,523.0,58.3,14.6,116.6,4.47,57.12,-1.0,-1.0,-1.0,-1.0,-1.0,-1.0,-1.0,-1.0,-1.0,-1.0,-1.0,-1.0,-1.0,-1.0
583.0,195.904,1235.0,523.0,0.0,29.2,0.0,4.4,65.45,-1.0,-1.0,-1.0,-1.0,-1.0,-1.0,-1.0,-1.0,-1.0,-1.0,-1.0,-1.0,-1.0,-1.0
524.7,195.904,1235.0,523.0,58.3,29.2,0.0,4.5,62.475,-1.0,-1.0,-1.0,-1.0,-1.0,-1.0,-1.0,-1.0,-1.0,-1.0,-1.0,-1.0,-1.0,-1.0
466.4,214.56,1235.0,523.0,116.6,29.2,58.3,4.27,58.65,-1.0,-1.0,-1.0,-1.0,-1.0,-1.0,-1.0,-1.0,-1.0,-1.0,-1.0,-1.0,-1.0,-1.0
466.4,200.544,1235.0,523.0,0.0,43.7,116.6,5.6,67.15,-1.0,-1.0,-1.0,-1.0,-1.0,-1.0,-1.0,-1.0,-1.0,-1.0,-1.0,-1.0,-1.0,-1.0
408.1,200.544,1235.0,523.0,58.3,43.7,116.6,5.05,58.48,-1.0,-1.0,-1.0,-1.0,-1.0,-1.0,-1.0,-1.0,-1.0,-1.0,-1.0,-1.0,-1.0,-1.0
583.0,205.216,1235.0,523.0,0.0,58.3,0.0,5.62,67.15,-1.0,-1.0,-1.0,-1.0,-1.0,-1.0,-1.0,-1.0,-1.0,-1.0,-1.0,-1.0,-1.0,-1.0
524.7,205.216,1235.0,523.0,58.3,58.3,0.0,5.43,65.45,-1.0,-1.0,-1.0,-1.0,-1.0,-1.0,-1.0,-1.0,-1.0,-1.0,-1.0,-1.0,-1.0,-1.0
466.4,223.872,1235.0,523.0,116.6,58.3,58.3,5.6,60.605,-1.0,-1.0,-1.0,-1.0,-1.0,-1.0,-1.0,-1.0,-1.0,-1.0,-1.0,-1.0,-1.0,-1.0
466.4,209.888,1235.0,523.0,0.0,72.9,116.6,5.76,65.45,-1.0,-1.0,-1.0,-1.0,-1.0,-1.0,-1.0,-1.0,-1.0,-1.0,-1.0,-1.0,-1.0,-1.0
408.1,209.888,1235.0,523.0,58.3,72.9,116.6,5.3,56.95,-1.0,-1.0,-1.0,-1.0,-1.0,-1.0,-1.0,-1.0,-1.0,-1.0,-1.0,-1.0,-1.0,-1.0
598.0,350.1,934.0,915.0,0.0,0.0,180.0,0.0,36.0,3.25,4.5,-1.0,-1.0,-1.0,-1.0,-1.0,-1.0,-1.0,-1.0,-1.0,-1.0,-1.0,-1.0
440.0,176.0,931.0,725.0,0.0,0.0,110.0,10.43,63.835,-1.0,-1.0,-1.0,-1.0,-1.0,-1.0,-1.0,-1.0,-1.0,-1.0,-1.0,-1.0,-1.0,-1.0
495.0,176.0,925.0,720.0,0.0,55.0,0.0,10.67,72.76,-1.0,-1.0,-1.0,-1.0,-1.0,-1.0,-1.0,-1.0,-1.0,-1.0,-1.0,-1.0,-1.0,-1.0
220.0,176.0,880.0,685.0,247.5,82.5,0.0,8.89,50.915,-1.0,-1.0,-1.0,-1.0,-1.0,-1.0,-1.0,-1.0,-1.0,-1.0,-1.0,-1.0,-1.0,-1.0
440.0,176.0,924.0,720.0,55.0,0.0,55.0,8.0,65.365,-1.0,-1.0,-1.0,-1.0,-1.0,-1.0,-1.0,-1.0,-1.0,-1.0,-1.0,-1.0,-1.0,-1.0
330.0,176.0,909.0,707.0,82.5,55.0,82.5,6.48,61.795,-1.0,-1.0,-1.0,-1.0,-1.0,-1.0,-1.0,-1.0,-1.0,-1.0,-1.0,-1.0,-1.0,-1.0
87.5,172.0,1100.0,880.0,62.5,0.0,100.0,5.0,31.8,-1.0,-1.0,-1.0,-1.0,-1.0,-1.0,-1.0,-1.0,-1.0,-1.0,-1.0,-1.0,-1.0,-1.0
122.5,172.0,1100.0,880.0,87.5,0.0,140.0,5.0,44.1,-1.0,-1.0,-1.0,-1.0,-1.0,-1.0,-1.0,-1.0,-1.0,-1.0,-1.0,-1.0,-1.0,-1.0
208.0,170.0,1035.0,697.0,0.0,0.0,207.0,2.9,46.4,-1.0,-1.0,32.0,-1.0,-1.0,-1.0,-1.0,-1.0,-1.0,-1.0,-1.0,-1.0,-1.0,-1.0
180.0,111.6,831.0,1246.0,0.0,0.0,180.0,0.0,64.8,-1.0,-1.0,-1.0,-1.0,-1.0,-1.0,-1.0,-1.0,-1.0,-1.0,-1.0,-1.0,-1.0,-1.0
270.0,171.0,808.0,1204.0,0.0,0.0,180.0,0.0,70.0,-1.0,-1.0,-1.0,-1.0,-1.0,-1.0,-1.0,-1.0,-1.0,-1.0,-1.0,-1.0,-1.0,-1.0
175.0,218.0,1109.0,731.0,0.0,0.0,75.0,0.0,19.975,-1.0,-1.0,-1.0,-1.0,-1.0,-1.0,-1.0,-1.0,-1.0,-1.0,-1.0,-1.0,-1.0,-1.0
175.0,248.0,948.0,624.0,0.0,0.0,275.0,0.0,21.335,-1.0,-1.0,-1.0,-1.0,-1.0,-1.0,-1.0,-1.0,-1.0,-1.0,-1.0,-1.0,-1.0,-1.0
210.0,240.0,979.0,645.0,0.0,0.0,210.0,0.0,29.665,-1.0,-1.0,-1.0,-1.0,-1.0,-1.0,-1.0,-1.0,-1.0,-1.0,-1.0,-1.0,-1.0,-1.0
245.0,230.0,1036.0,683.0,0.0,0.0,105.0,0.0,30.685,-1.0,-1.0,-1.0,-1.0,-1.0,-1.0,-1.0,-1.0,-1.0,-1.0,-1.0,-1.0,-1.0,-1.0
245.0,279.0,799.0,526.0,0.0,0.0,385.0,0.0,31.875,-1.0,-1.0,-1.0,-1.0,-1.0,-1.0,-1.0,-1.0,-1.0,-1.0,-1.0,-1.0,-1.0,-1.0
280.0,263.0,866.0,570.0,0.0,0.0,280.0,0.0,41.14,-1.0,-1.0,-1.0,-1.0,-1.0,-1.0,-1.0,-1.0,-1.0,-1.0,-1.0,-1.0,-1.0,-1.0
300.0,140.0,1140.0,647.0,125.0,0.0,75.0,10.0,68.51,-1.0,-1.0,-1.0,-1.0,-1.0,-1.0,-1.0,-1.0,-1.0,-1.0,-1.0,-1.0,-1.0,-1.0
320.0,160.0,1285.0,500.0,0.0,0.0,137.0,3.84,58.5,-1.0,7.0,40.5,-1.0,-1.0,-1.0,-1.0,-1.0,-1.0,-1.0,-1.0,-1.0,-1.0,-1.0
219.06,197.1,1139.1,657.19,0.0,46.58,199.15,0.0,28.8,3.43,6.28,-1.0,-1.0,-1.0,-1.0,-1.0,-1.0,-1.0,-1.0,-1.0,-1.0,-1.0,-1.0
459.0,156.06,817.56,828.36,0.0,81.0,0.0,4.32,44.71,-1.0,-1.0,-1.0,-1.0,-1.0,-1.0,-1.0,-1.0,-1.0,-1.0,-1.0,-1.0,-1.0,-1.0
400.0,150.0,1147.0,703.0,100.0,0.0,0.0,7.5,67.405,-1.0,-1.0,-1.0,-1.0,-1.0,-1.0,-1.0,-1.0,-1.0,-1.0,-1.0,-1.0,-1.0,-1.0
442.0,288.96,678.0,984.0,78.0,0.0,0.0,4.16,33.745,3.75,-1.0,-1.0,-1.0,-1.0,-1.0,-1.0,-1.0,-1.0,-1.0,-1.0,-1.0,-1.0,-1.0
390.0,288.96,678.0,984.0,78.0,0.0,52.0,4.16,32.47,3.18,-1.0,-1.0,-1.0,-1.0,-1.0,-1.0,-1.0,-1.0,-1.0,-1.0,-1.0,-1.0,-1.0
234.0,195.0,1200.0,710.0,0.0,0.0,142.0,0.0,28.6875,2.9,3.66,-1.0,-1.0,-1.0,-1.0,-1.0,-1.0,-1.0,-1.0,-1.0,-1.0,-1.0,-1.0
156.0,203.0,1174.0,710.0,0.0,0.0,212.0,0.0,24.225,2.57,3.45,-1.0,-1.0,-1.0,-1.0,-1.0,-1.0,-1.0,-1.0,-1.0,-1.0,-1.0,-1.0
312.0,215.0,1096.0,710.0,0.0,0.0,71.0,0.0,23.545,2.66,3.55,-1.0,-1.0,-1.0,-1.0,-1.0,-1.0,-1.0,-1.0,-1.0,-1.0,-1.0,-1.0
273.0,168.0,1150.0,688.0,0.0,0.0,147.0,2.9,62.34,-1.0,7.72,-1.0,-1.0,-1.0,-1.0,-1.0,225.0,285.0,300.0,-1.0,-1.0,-1.0,-1.0
435.0,154.0,1098.0,772.0,0.0,43.5,0.0,4.31,44.03,-1.0,-1.0,-1.0,-1.0,-1.0,-1.0,-1.0,-1.0,-1.0,-1.0,-1.0,-1.0,-1.0,-1.0
435.0,154.0,1098.0,772.0,0.0,0.0,87.0,4.31,41.565,-1.0,-1.0,-1.0,-1.0,-1.0,-1.0,-1.0,-1.0,-1.0,-1.0,-1.0,-1.0,-1.0,-1.0
315.0,157.5,1105.5,737.0,0.0,0.0,135.0,2.5,50.0,-1.0,-1.0,-1.0,-1.0,-1.0,-1.0,-1.0,-1.0,-1.0,-1.0,-1.0,-1.0,-1.0,-1.0
427.5,112.5,1432.8,445.73,0.0,22.5,0.0,18.0,91.16,-1.0,-1.0,38.88,-1.0,-1.0,-1.0,-1.0,-1.0,-1.0,-1.0,-1.0,-1.0,-1.0,-1.0
337.5,112.5,1413.05,439.59,0.0,112.5,0.0,13.5,84.88,-1.0,-1.0,35.15,-1.0,-1.0,-1.0,-1.0,-1.0,-1.0,-1.0,-1.0,-1.0,-1.0,-1.0
405.0,126.0,1125.0,675.0,45.0,0.0,0.0,14.0,72.845,-1.0,-1.0,43.74,-1.0,-1.0,-1.0,-1.0,-1.0,-1.0,-1.0,-1.0,-1.0,-1.0,-1.0
270.0,126.0,1125.0,675.0,0.0,0.0,180.0,14.0,74.46,-1.0,-1.0,44.84,-1.0,-1.0,-1.0,-1.0,-1.0,-1.0,-1.0,-1.0,-1.0,-1.0,-1.0
135.0,135.0,895.0,895.0,135.0,45.0,135.0,1.571,66.69,-1.0,-1.0,-1.0,-1.0,-1.0,-1.0,-1.0,-1.0,-1.0,-1.0,-1.0,-1.0,-1.0,-1.0
180.0,135.0,895.0,895.0,225.0,45.0,0.0,2.929,60.25,-1.0,-1.0,-1.0,-1.0,-1.0,-1.0,-1.0,-1.0,-1.0,-1.0,-1.0,-1.0,-1.0,-1.0
135.0,135.0,875.0,875.0,0.0,0.0,315.0,1.0,66.85,-1.0,-1.0,-1.0,-1.0,-1.0,-1.0,-1.0,-1.0,-1.0,-1.0,-1.0,-1.0,-1.0,-1.0
427.4,214.0,1212.0,520.0,23.8,0.0,23.8,0.0,40.375,-1.0,-1.0,-1.0,-1.0,-1.0,-1.0,-1.0,-1.0,-1.0,-1.0,-1.0,-1.0,-1.0,-1.0
427.4,214.0,1212.0,520.0,0.0,23.8,23.8,0.0,42.7465,-1.0,-1.0,-1.0,-1.0,-1.0,-1.0,-1.0,-1.0,-1.0,-1.0,-1.0,-1.0,-1.0,-1.0
332.4,214.0,1212.0,520.0,71.3,47.5,23.8,0.0,34.8075,-1.0,-1.0,-1.0,-1.0,-1.0,-1.0,-1.0,-1.0,-1.0,-1.0,-1.0,-1.0,-1.0,-1.0
332.4,214.0,1212.0,520.0,47.5,71.3,23.8,0.0,36.312,-1.0,-1.0,-1.0,-1.0,-1.0,-1.0,-1.0,-1.0,-1.0,-1.0,-1.0,-1.0,-1.0,-1.0
300.0,160.0,1246.0,741.0,0.0,0.0,100.0,0.0,43.775,4.2,5.23,35.73,2508.0,-1.0,-1.0,-1.0,-1.0,-1.0,-1.0,-1.0,-1.0,-1.0,-1.0
385.0,137.5,840.2,840.2,165.0,0.0,0.0,21.7,51.0,-1.0,-1.0,-1.0,-1.0,-1.0,-1.0,-1.0,-1.0,-1.0,-1.0,-1.0,-1.0,-1.0,-1.0
495.0,137.5,840.3,840.3,0.0,0.0,55.0,23.1,68.0,-1.0,-1.0,-1.0,-1.0,-1.0,-1.0,-1.0,-1.0,-1.0,-1.0,-1.0,-1.0,-1.0,-1.0
275.0,137.5,740.3,740.3,0.0,0.0,275.0,19.0,65.875,-1.0,-1.0,-1.0,-1.0,-1.0,-1.0,-1.0,-1.0,-1.0,-1.0,-1.0,-1.0,-1.0,-1.0
385.0,137.5,816.1,816.1,82.5,0.0,82.5,20.6,72.42,-1.0,-1.0,-1.0,-1.0,-1.0,-1.0,-1.0,-1.0,-1.0,-1.0,-1.0,-1.0,-1.0,-1.0
181.44,197.0,1014.85,797.38,0.0,7.8,0.0,0.0,27.455,3.43,-1.0,-1.0,-1.0,-1.0,-1.0,-1.0,-1.0,-1.0,-1.0,-1.0,-1.0,-1.0,-1.0
138.24,197.0,1014.85,797.38,0.0,0.0,54.72,0.0,27.71,3.49,-1.0,-1.0,-1.0,-1.0,-1.0,-1.0,-1.0,-1.0,-1.0,-1.0,-1.0,-1.0,-1.0
243.0,116.64,1009.0,1127.0,0.0,0.0,243.0,14.55,66.3,-1.0,13.0,-1.0,-1.0,-1.0,-1.0,96.5,207.52,280.84,-1.0,-1.0,-1.0,-1.0,-1.0
243.0,135.8,974.0,1087.0,0.0,58.0,184.0,14.55,61.2,-1.0,10.2,-1.0,-1.0,-1.0,-1.0,-1.0,-1.0,-1.0,-1.0,-1.0,-1.0,-1.0,-1.0