File: SCM_ft.csv
 Cement(kg/m3), Water(kg/m3),Coarse aggregate(kg/m3),Fine aggregate(kg/m3), FA (kg/m3),SF (kg/m3),GGBFS (kg/m3),SP (kg/m3),Splitting tensile strength (MPa)
300.0,150.0,1097.0,673.0,200.0,0.0,0.0,4.5,2.52
225.0,150.0,1097.0,673.0,275.0,0.0,0.0,4.5,2.4
150.0,150.0,1097.0,673.0,350.0,0.0,0.0,4.0,2.05
300.0,150.0,1097.0,673.0,0.0,0.0,200.0,5.5,2.75
225.0,150.0,1097.0,673.0,0.0,0.0,275.0,6.0,2.65
150.0,150.0,1097.0,673.0,0.0,0.0,350.0,6.5,2.35
225.0,150.0,1097.0,673.0,200.0,0.0,75.0,5.0,2.5
225.0,150.0,1097.0,673.0,75.0,0.0,200.0,5.0,2.37
260.0,214.9,832.0,785.0,260.0,0.0,0.0,4.78,1.57
260.0,214.9,832.0,785.0,130.0,0.0,130.0,5.67,2.75
260.0,214.9,832.0,785.0,104.0,52.0,104.0,6.86,3.66
130.0,214.9,832.0,785.0,390.0,0.0,0.0,7.4,0.96
130.0,214.9,832.0,785.0,195.0,0.0,195.0,7.28,1.67
130.0,214.9,832.0,785.0,156.0,78.0,156.0,7.57,2.89
290.0,163.0,1048.0,670.0,72.5,0.0,0.0,0.0,3.27
253.75,163.0,1048.0,670.0,108.75,0.0,0.0,0.0,4.128
253.75,163.0,1048.0,670.0,108.75,0.0,0.0,0.0,3.7275
253.75,163.0,1048.0,670.0,108.75,0.0,0.0,0.0,3.46725
253.75,163.0,1048.0,670.0,108.75,0.0,0.0,0.0,3.4338
253.75,163.0,1048.0,670.0,108.75,0.0,0.0,0.0,3.58225
253.75,163.0,1048.0,670.0,108.75,0.0,0.0,0.0,3.64
253.75,163.0,1048.0,670.0,108.75,0.0,0.0,0.0,3.8038
235.62,163.0,1048.0,670.0,0.0,0.0,126.88,0.0,3.91
253.75,163.0,1048.0,670.0,90.62,18.12,0.0,0.0,3.53
228.0,182.0,1100.0,770.0,0.0,0.0,228.0,0.0,3.88
228.0,182.0,1100.0,770.0,0.0,23.0,228.0,1.82,4.5
228.0,182.0,1100.0,770.0,0.0,46.0,182.0,2.58,4.45
228.0,182.0,1100.0,770.0,0.0,68.0,159.0,2.8,4.9
494.0,135.2,1146.0,667.0,0.0,26.0,0.0,18.2,6.38
468.0,135.2,1146.0,667.0,0.0,52.0,0.0,18.2,6.37
442.0,135.2,1146.0,667.0,0.0,78.0,0.0,18.2,6.65
416.0,135.2,1146.0,667.0,0.0,104.0,0.0,18.2,6.51
390.0,135.2,1146.0,667.0,0.0,130.0,0.0,18.2,5.75
484.5,153.0,1122.5,653.0,0.0,25.5,0.0,17.85,5.61
459.0,153.0,1122.5,653.0,0.0,51.0,0.0,17.85,6.05
433.5,153.0,1122.5,653.0,0.0,76.5,0.0,17.85,6.25
408.0,153.0,1122.5,653.0,0.0,102.0,0.0,17.85,6.24
382.5,153.0,1122.5,653.0,0.0,127.5,0.0,17.85,5.61
475.0,170.0,1100.0,640.0,0.0,25.0,0.0,17.5,5.61
450.0,170.0,1100.0,640.0,0.0,50.0,0.0,17.5,5.71
425.0,170.0,1100.0,640.0,0.0,75.0,0.0,17.5,5.75
400.0,170.0,1100.0,640.0,0.0,100.0,0.0,17.5,6.05
375.0,170.0,1100.0,640.0,0.0,125.0,0.0,17.5,5.85
465.5,186.2,1078.0,628.0,0.0,24.5,0.0,17.15,4.51
441.0,186.2,1078.0,628.0,0.0,49.0,0.0,17.15,5.17
416.5,186.2,1078.0,628.0,0.0,73.5,0.0,17.15,5.2
392.0,186.2,1078.0,628.0,0.0,98.0,0.0,17.15,5.21
367.5,186.2,1078.0,628.0,0.0,122.5,0.0,17.15,5.25
343.0,186.2,1078.0,628.0,0.0,147.0,0.0,17.15,4.85
456.0,201.6,1058.0,616.0,0.0,24.0,0.0,16.8,4.4
432.0,201.6,1058.0,616.0,0.0,48.0,0.0,16.8,4.45
408.0,201.6,1058.0,616.0,0.0,72.0,0.0,16.8,4.5
384.0,201.6,1058.0,616.0,0.0,96.0,0.0,16.8,4.54
360.0,201.6,1058.0,616.0,0.0,120.0,0.0,16.8,4.51
336.0,201.6,1058.0,616.0,0.0,144.0,0.0,16.8,4.35
275.0,176.0,504.0,900.0,275.0,0.0,0.0,5.5,1.98
465.0,227.7,590.0,910.0,85.0,0.0,0.0,10.73,2.4
440.0,228.6,590.0,910.0,110.0,0.0,0.0,11.01,2.12
415.0,233.3,590.0,910.0,135.0,0.0,0.0,9.91,1.83
385.0,234.4,590.0,910.0,165.0,0.0,0.0,9.91,1.76
355.0,241.6,590.0,910.0,195.0,0.0,0.0,9.91,1.55
420.0,165.0,746.0,847.0,180.0,0.0,0.0,13.02,4.85
360.0,165.0,735.0,837.0,240.0,0.0,0.0,19.98,3.73
300.0,165.0,723.0,825.0,300.0,0.0,0.0,20.4,3.8
240.0,165.0,712.0,815.0,360.0,0.0,0.0,22.02,3.5
360.0,165.0,734.0,835.0,180.0,60.0,0.0,22.02,5.28
300.0,165.0,723.0,825.0,240.0,60.0,0.0,21.0,4.01
240.0,165.0,712.0,813.0,300.0,60.0,0.0,19.98,4.23
180.0,165.0,701.0,804.0,360.0,60.0,0.0,18.0,4.9
120.0,112.0,1200.0,600.0,280.0,0.0,0.0,5.6,2.53
120.0,116.0,1200.0,600.0,280.0,0.0,0.0,0.0,2.51
200.0,132.0,1200.0,600.0,200.0,0.0,0.0,5.6,4.06
200.0,120.0,1200.0,600.0,200.0,0.0,0.0,0.0,4.2
120.0,112.0,1200.0,600.0,280.0,0.0,0.0,5.6,2.88
120.0,116.0,1200.0,600.0,280.0,0.0,0.0,0.0,2.82
200.0,132.0,1200.0,600.0,200.0,0.0,0.0,5.6,4.46
200.0,120.0,1200.0,600.0,200.0,0.0,0.0,0.0,4.59
120.0,172.0,1200.0,600.0,280.0,0.0,0.0,5.6,1.82
120.0,160.0,1200.0,600.0,280.0,0.0,0.0,0.0,2.04
200.0,172.0,1200.0,600.0,200.0,0.0,0.0,5.6,3.19
200.0,156.0,1200.0,600.0,200.0,0.0,0.0,0.0,3.69
437.0,204.0,785.0,908.0,51.0,26.0,0.0,10.28,3.73
424.0,204.0,785.0,908.0,51.0,39.0,0.0,10.28,3.73
411.0,204.0,785.0,908.0,51.0,51.0,0.0,10.26,3.97
411.0,204.0,785.0,908.0,77.0,26.0,0.0,10.28,3.8
398.0,204.0,785.0,908.0,77.0,39.0,0.0,10.28,4.0
386.0,204.0,785.0,908.0,77.0,51.0,0.0,10.28,4.02
386.0,204.0,785.0,908.0,103.0,26.0,0.0,10.3,4.12
373.0,204.0,785.0,908.0,103.0,39.0,0.0,10.3,4.25
360.0,204.0,785.0,908.0,103.0,51.0,0.0,10.28,4.58
360.0,204.0,785.0,908.0,129.0,26.0,0.0,10.3,4.73
347.0,204.0,785.0,908.0,129.0,39.0,0.0,10.3,3.82
334.0,204.0,785.0,908.0,129.0,51.0,0.0,10.28,3.73
334.0,204.0,785.0,908.0,154.0,26.0,0.0,10.28,3.25
321.0,204.0,785.0,908.0,154.0,39.0,0.0,10.28,2.95
308.0,204.0,785.0,908.0,154.0,51.0,0.0,10.26,2.49
250.0,125.0,1083.4,722.3,250.0,0.0,0.0,11.0,5.38
250.0,125.0,1093.0,728.7,125.0,0.0,125.0,11.0,5.18
250.0,125.0,1088.2,725.4,100.0,50.0,100.0,11.0,5.47
125.0,125.0,1060.8,707.2,375.0,0.0,0.0,11.0,4.43
125.0,125.0,1075.2,716.8,187.5,0.0,187.5,11.0,4.83
125.0,125.0,1068.0,712.0,150.0,75.0,150.0,11.0,5.1
368.0,161.0,1085.2,693.81,92.0,0.0,0.0,1.104,4.7
322.0,161.0,1085.2,693.81,138.0,0.0,0.0,1.104,4.5
276.0,161.0,1085.2,693.81,184.0,0.0,0.0,1.104,4.48
368.0,161.0,1085.2,693.81,0.0,0.0,92.0,1.104,4.98
322.0,161.0,1085.2,693.81,0.0,0.0,138.0,1.104,4.58
276.0,161.0,1085.2,693.81,0.0,0.0,184.0,1.104,4.5
300.0,191.0,875.0,761.0,169.0,0.0,0.0,4.0,3.5
300.0,191.0,862.0,761.0,169.0,0.0,0.0,4.2,2.91
300.0,191.0,850.0,761.0,169.0,0.0,0.0,4.2,2.33
300.0,191.0,838.0,761.0,169.0,0.0,0.0,4.3,1.95
300.0,194.0,825.0,761.0,158.0,0.0,0.0,4.3,1.45
420.0,156.0,1134.0,610.0,0.0,0.0,180.0,9.6,5.91
360.0,156.0,1134.0,610.0,0.0,60.0,180.0,9.6,6.14
262.5,175.0,1025.0,832.0,0.0,0.0,87.5,3.5,2.71
175.0,175.0,1021.0,830.0,0.0,0.0,175.0,3.5,2.28
437.0,176.0,924.0,743.0,80.0,0.0,0.0,4.65,5.5
333.0,173.0,924.0,743.0,162.0,0.0,0.0,3.71,4.2
225.0,170.0,924.0,743.0,247.0,0.0,0.0,3.21,3.3
115.0,167.0,924.0,743.0,336.0,0.0,0.0,2.93,1.8
440.0,209.0,705.0,748.0,110.0,0.0,0.0,9.35,2.9
440.0,209.0,708.7,748.0,110.0,0.0,0.0,9.35,3.0
440.0,209.0,680.9,750.0,110.0,0.0,0.0,7.7,3.2
440.0,209.0,705.0,748.0,110.0,0.0,0.0,9.35,3.22
440.0,209.0,635.5,748.0,110.0,0.0,0.0,9.35,2.86
280.0,160.0,1104.0,736.0,0.0,0.0,120.0,2.0,2.0
240.0,160.0,1104.0,736.0,0.0,0.0,160.0,2.0,2.8
200.0,160.0,1104.0,736.0,0.0,0.0,200.0,2.0,1.6
304.56,160.0,1270.0,605.0,84.6,33.84,126.9,3.6,4.24
304.56,160.0,1270.0,605.0,84.6,33.84,169.2,3.6,4.27
304.56,160.0,1270.0,605.0,84.6,33.84,211.5,3.6,3.64
262.26,160.0,1270.0,605.0,126.9,33.84,126.9,3.6,3.66
262.26,160.0,1270.0,605.0,126.9,33.84,169.2,3.6,3.95
262.26,160.0,1270.0,605.0,126.9,33.84,211.5,3.6,3.66
219.96,160.0,1270.0,605.0,169.2,33.84,126.9,3.6,3.0
219.96,160.0,1270.0,605.0,169.2,33.84,169.2,3.6,3.19
219.96,160.0,1270.0,605.0,169.2,33.84,211.5,3.6,2.81
450.0,184.5,1201.5,306.0,0.0,0.0,306.0,3.78,3.0
360.0,184.5,1201.5,612.0,90.0,0.0,0.0,2.25,2.5
315.0,184.5,1201.5,612.0,135.0,0.0,0.0,2.25,2.38
270.0,184.5,1201.5,612.0,180.0,0.0,0.0,2.25,2.3
360.0,184.5,1201.5,306.0,90.0,0.0,306.0,7.56,2.52
315.0,184.5,1201.5,306.0,135.0,0.0,306.0,7.56,2.61
270.0,184.5,1201.5,306.0,180.0,0.0,306.0,7.56,2.65
160.0,130.0,1115.0,770.0,127.0,0.0,0.0,2.296,3.0
144.0,129.0,1115.0,770.0,127.0,0.0,16.0,2.296,3.2
127.0,127.0,1115.0,770.0,127.0,0.0,32.0,2.288,3.5
111.0,128.0,1115.0,770.0,127.0,0.0,47.0,2.28,3.52
94.0,128.0,1115.0,770.0,127.0,0.0,63.0,2.272,3.7
78.0,128.0,1115.0,770.0,127.0,0.0,78.0,2.264,3.91
158.0,105.0,1115.0,770.0,127.0,0.0,68.0,2.824,3.82
140.0,114.0,1115.0,770.0,127.0,0.0,60.0,2.616,3.74
124.0,122.0,1115.0,770.0,127.0,0.0,53.0,2.432,3.68
111.0,128.0,1115.0,770.0,127.0,0.0,47.0,2.28,3.52
99.0,133.0,1115.0,770.0,127.0,0.0,42.0,2.144,3.28
320.0,152.0,1097.0,731.2,80.0,0.0,0.0,0.0,5.35
280.0,152.0,1097.0,731.2,120.0,0.0,0.0,0.0,4.93
240.0,152.0,1097.0,731.2,160.0,0.0,0.0,0.0,4.02
320.0,152.0,1097.0,731.2,0.0,0.0,80.0,0.0,4.41
280.0,152.0,1097.0,731.2,0.0,0.0,120.0,0.0,4.19
240.0,152.0,1097.0,731.2,0.0,0.0,160.0,0.0,4.0
260.0,152.0,1097.0,731.2,80.0,0.0,60.0,0.0,4.15
240.0,152.0,1097.0,731.2,80.0,0.0,80.0,0.0,3.47
444.6,158.0,1151.0,647.0,49.4,0.0,0.0,4.94,5.46
419.9,158.0,1151.0,647.0,74.1,0.0,0.0,4.94,5.62
395.2,158.0,1151.0,647.0,98.8,0.0,0.0,4.94,5.71
370.5,158.0,1151.0,647.0,123.5,0.0,0.0,4.94,5.57
479.2,158.0,1151.0,647.0,0.0,14.8,0.0,4.94,5.52
464.4,158.0,1151.0,647.0,0.0,29.6,0.0,4.94,5.76
449.5,158.0,1151.0,647.0,0.0,44.5,0.0,4.94,6.08
434.7,158.0,1151.0,647.0,0.0,59.3,0.0,4.94,6.35
405.1,158.0,1151.0,647.0,74.1,14.8,0.0,4.94,5.62
390.3,158.0,1151.0,647.0,74.1,29.6,0.0,4.94,5.79
375.4,158.0,1151.0,647.0,74.1,44.5,0.0,4.94,6.1
360.6,158.0,1151.0,647.0,74.1,59.3,0.0,4.94,6.36
273.125,190.0,754.0,939.0,47.5,11.875,142.5,1.1875,3.31
249.375,190.0,750.2,934.1,71.25,11.875,142.5,1.1875,3.25
225.625,190.0,752.5,937.1,47.5,11.875,190.0,1.1875,3.18
154.375,190.0,746.8,930.0,71.25,11.875,237.5,1.425,2.61
142.5,190.0,746.1,929.1,71.25,23.75,237.5,1.6625,2.55
130.625,190.0,742.9,925.1,95.0,11.875,237.5,1.425,2.39
118.75,180.5,742.2,924.2,71.25,23.75,237.5,1.579375,2.36
106.875,190.0,741.7,923.7,95.0,35.625,237.5,1.6625,2.32
273.125,190.0,697.1,921.6,47.5,11.875,142.5,1.1875,3.47
249.375,190.0,685.2,905.9,71.25,11.875,142.5,1.1875,3.35
225.625,190.0,695.7,919.7,47.5,11.875,190.0,1.1875,3.25
154.375,190.0,690.4,912.7,71.25,11.875,237.5,1.425,2.8
142.5,190.0,689.8,911.9,71.25,23.75,237.5,1.6625,2.71
130.625,190.0,686.8,908.0,95.0,11.875,237.5,1.425,2.58
118.75,180.5,686.4,907.4,71.25,23.75,237.5,1.579375,2.48
106.875,190.0,685.8,906.6,95.0,35.625,237.5,1.6625,2.39
138.0,191.4,1107.0,660.0,92.0,46.0,184.0,1.84,2.93
138.0,195.6,1071.0,660.0,92.0,46.0,184.0,1.84,3.36
138.0,200.7,1048.0,660.0,92.0,46.0,184.0,1.84,3.05
138.0,199.4,990.0,660.0,92.0,46.0,184.0,1.84,2.95
138.0,208.2,990.0,660.0,92.0,46.0,184.0,1.84,2.89
138.0,205.3,1007.0,635.0,92.0,46.0,184.0,1.84,2.78
138.0,209.5,1023.0,612.0,92.0,46.0,184.0,1.84,2.88
330.0,173.46,1198.0,798.0,83.0,0.0,0.0,1.45,3.88
289.0,173.46,1185.0,790.0,124.0,0.0,0.0,1.45,3.8
248.0,173.46,1172.0,781.0,165.0,0.0,0.0,1.45,3.42
356.0,186.9,1338.0,653.0,89.0,0.0,0.0,1.11,3.71
312.0,186.9,1322.0,645.0,133.0,0.0,0.0,1.11,3.65
267.0,186.9,1307.0,637.0,178.0,0.0,0.0,1.11,3.3
384.85,151.35,1144.6,706.5,0.0,47.57,0.0,5.19,5.0
371.88,151.35,1152.31,711.22,0.0,0.0,60.54,4.76,4.8
332.0,92.96,1504.0,75.2,0.0,17.5,0.0,4.375,2.0
315.0,88.2,1504.0,75.2,0.0,35.0,0.0,4.375,2.38
345.0,134.4,1587.0,0.0,38.0,0.0,0.0,0.0,3.4
345.0,134.4,1434.0,154.0,38.0,0.0,0.0,0.0,3.72
345.0,134.4,1280.0,307.0,38.0,0.0,0.0,0.0,3.95
269.0,134.4,1587.0,0.0,38.0,38.0,0.0,0.0,4.2
269.0,134.4,1434.0,154.0,38.0,38.0,0.0,0.0,4.72
269.0,134.4,1280.0,307.0,38.0,38.0,0.0,0.0,5.25
459.0,178.5,915.0,865.0,0.0,51.0,0.0,4.5,4.2
357.0,178.5,915.0,865.0,0.0,0.0,153.0,4.5,3.85
408.0,178.5,915.0,865.0,102.0,0.0,0.0,4.5,3.8
666.0,152.0,1103.0,523.0,0.0,0.0,74.0,8.88,5.66
592.0,152.0,1100.0,522.0,0.0,0.0,148.0,8.88,5.85
518.0,152.0,1097.0,520.0,0.0,0.0,222.0,8.88,6.23
444.0,152.0,1094.0,519.0,0.0,0.0,296.0,8.88,6.65
370.0,152.0,1091.0,518.0,0.0,0.0,370.0,8.88,6.46
696.0,152.0,1099.0,522.0,0.0,44.4,0.0,8.88,6.82
681.0,152.0,1092.0,518.0,0.0,59.0,0.0,8.88,7.02
666.0,152.0,1085.0,515.0,0.0,74.0,0.0,8.88,7.22
651.0,151.0,1081.0,513.0,0.0,89.0,0.0,8.88,7.56
629.0,151.0,1075.0,510.0,0.0,111.0,0.0,8.88,7.87
607.0,151.0,1069.0,507.0,0.0,133.0,0.0,8.88,7.72
577.0,151.0,1078.0,511.0,0.0,89.0,74.0,8.88,7.82
503.0,151.0,1075.0,510.0,0.0,89.0,148.0,8.88,7.94
429.0,151.0,1072.0,509.0,0.0,89.0,222.0,8.88,8.12
355.0,151.0,1069.0,507.0,0.0,89.0,296.0,8.88,8.26
281.0,151.0,1066.0,506.0,0.0,89.0,370.0,8.88,8.15
227.5,140.0,1314.2,744.3,87.5,0.0,35.0,3.5,4.21
227.5,140.0,1314.2,744.3,0.0,35.0,87.5,3.5,4.18
227.5,140.0,1314.2,744.3,87.5,35.0,0.0,3.5,4.13
227.5,140.0,1314.2,744.3,70.0,0.0,52.5,3.5,4.03
227.5,140.0,1314.2,744.3,0.0,52.5,70.0,3.5,4.1
227.5,140.0,1314.2,744.3,70.0,52.5,0.0,3.5,4.19
227.5,140.0,1314.2,744.3,35.0,87.5,0.0,3.5,3.94
227.5,140.0,1314.2,744.3,35.0,0.0,87.5,3.5,3.91
227.5,140.0,1314.2,744.3,0.0,87.5,35.0,3.5,3.86
227.5,140.0,1314.2,744.3,70.0,52.5,0.0,3.5,3.54
227.5,140.0,1314.2,744.3,70.0,0.0,52.0,3.5,3.68
227.5,140.0,1314.2,744.3,70.0,52.5,0.0,3.5,3.79
504.8,185.5,797.5,886.6,0.0,10.302,0.0,11.3322,4.75
494.5,185.5,796.0,884.9,0.0,20.604,0.0,11.3323,4.9
484.2,185.5,794.5,883.2,0.0,30.906,0.0,11.3323,4.99
473.9,185.5,793.0,881.6,0.0,41.208,0.0,11.3324,5.1
463.6,185.5,791.5,879.9,0.0,51.51,0.0,11.33242,5.05
499.7,185.5,776.1,862.8,15.453,0.0,0.0,11.3334,4.0
484.2,185.5,753.2,837.4,30.906,0.0,0.0,11.3323,4.07
430.1,185.5,746.8,830.2,84.9915,0.0,0.0,11.332,4.2
401.8,185.5,729.4,810.9,113.322,0.0,0.0,11.3327,4.25
373.5,185.5,712.0,791.6,141.6525,0.0,0.0,11.3334,4.2
345.1,185.5,694.6,772.2,169.983,0.0,0.0,11.3318,4.19
316.8,185.5,677.2,752.9,198.3135,0.0,0.0,11.3325,4.03
288.5,185.5,659.8,733.5,226.644,0.0,0.0,11.3332,3.98
231.8,185.5,625.0,694.9,283.305,0.0,0.0,11.33231,3.8
324.0,250.0,836.0,631.0,0.0,23.0,116.0,0.0,3.0
324.0,260.9,825.0,631.0,0.0,23.0,116.0,0.0,2.84
324.0,271.7,813.0,631.0,0.0,23.0,116.0,0.0,2.89
324.0,293.5,791.0,631.0,0.0,23.0,116.0,0.0,2.49
441.75,200.0,737.0,937.5,23.25,0.0,0.0,3.72,3.24
418.5,200.0,737.0,937.5,46.5,0.0,0.0,3.72,3.38
395.25,200.0,737.0,937.5,69.75,0.0,0.0,3.72,3.5
372.0,200.0,737.0,937.5,93.0,0.0,0.0,3.72,3.6
348.75,200.0,737.0,937.5,116.25,0.0,0.0,3.72,3.63
325.5,200.0,737.0,937.5,139.5,0.0,0.0,3.72,3.6
302.25,200.0,737.0,937.5,162.75,0.0,0.0,3.72,3.51
441.75,200.0,737.0,937.5,0.0,23.25,0.0,3.72,3.53
418.5,200.0,737.0,937.5,0.0,46.5,0.0,3.72,3.75
395.25,200.0,737.0,937.5,0.0,69.75,0.0,3.72,3.74
372.0,200.0,737.0,937.5,0.0,93.0,0.0,3.72,3.52
348.75,200.0,737.0,937.5,0.0,116.25,0.0,3.72,3.5
348.75,200.0,737.0,937.5,93.0,23.85,0.0,3.72,3.51
348.75,200.0,737.0,937.5,69.75,47.7,0.0,3.72,3.97
348.75,200.0,737.0,937.5,46.5,69.75,0.0,3.72,3.7
348.75,200.0,737.0,937.5,23.25,93.0,0.0,3.72,3.63
348.75,200.0,737.0,937.5,0.0,116.25,0.0,3.72,3.58
301.15,155.33,1268.0,634.0,0.0,15.85,0.0,0.0,3.42
285.3,152.16,1268.0,634.0,0.0,31.7,0.0,0.0,3.5
269.45,148.99,1268.0,634.0,0.0,47.55,0.0,0.0,3.3
301.15,158.5,1268.0,634.0,15.85,0.0,0.0,0.0,3.31
285.3,155.33,1268.0,634.0,31.7,0.0,0.0,0.0,3.49
269.45,152.16,1268.0,634.0,47.55,0.0,0.0,0.0,3.23
301.15,158.5,1268.0,634.0,7.93,7.93,0.0,0.0,3.43
285.3,152.16,1268.0,634.0,15.85,15.85,0.0,0.0,3.6
269.45,148.99,1268.0,634.0,23.78,23.78,0.0,0.0,3.75
360.0,180.0,868.0,941.0,40.0,0.0,0.0,0.0,2.4
320.0,180.0,865.0,937.0,80.0,0.0,0.0,0.0,2.25
280.0,180.0,852.0,933.0,120.0,0.0,0.0,0.0,2.0
380.0,180.0,869.0,941.0,0.0,20.0,0.0,0.0,2.6
360.0,180.0,865.0,937.0,0.0,40.0,0.0,0.0,3.17
340.0,180.0,863.0,935.0,40.0,20.0,0.0,0.0,2.47
280.0,180.0,861.0,932.0,80.0,20.0,0.0,0.0,2.36
260.0,180.0,858.0,930.0,120.0,20.0,0.0,0.0,2.3
486.0,183.6,817.56,828.36,0.0,54.0,0.0,4.86,4.78
324.0,162.0,1027.0,750.0,81.0,0.0,0.0,0.0,3.5
291.0,155.0,1044.0,762.0,97.0,0.0,0.0,0.0,3.2
368.0,155.0,1057.0,772.0,0.0,19.0,0.0,0.0,4.3
194.0,155.0,1041.0,760.0,97.0,0.0,97.0,0.0,3.8
155.0,155.0,1037.0,757.0,116.0,0.0,116.0,0.0,3.3
194.0,155.0,1054.0,769.0,0.0,0.0,194.0,0.0,4.1
116.0,155.0,1048.0,765.0,0.0,19.0,252.0,0.0,3.7
342.0,155.0,1078.0,667.0,114.0,0.0,0.0,0.0,4.0
433.0,155.0,1094.0,677.0,0.0,23.0,0.0,0.0,4.4
228.0,155.0,1073.0,664.0,114.0,0.0,114.0,0.0,4.1
182.0,155.0,1069.0,661.0,137.0,0.0,137.0,0.0,4.0
228.0,155.0,1090.0,674.0,0.0,0.0,228.0,0.0,4.7
137.0,155.0,1083.0,670.0,0.0,13.0,296.0,0.0,4.2
388.0,155.0,1016.0,628.0,138.0,28.0,0.0,0.0,5.3
526.0,155.0,1041.0,644.0,0.0,28.0,0.0,0.0,5.1
277.0,155.0,1016.0,628.0,111.0,28.0,138.0,0.0,4.8
221.0,155.0,1009.0,624.0,138.0,28.0,166.0,0.0,5.3
277.0,155.0,1031.0,638.0,0.0,28.0,249.0,0.0,4.9
137.0,155.0,1083.0,670.0,0.0,28.0,296.0,0.0,4.9
285.0,171.0,1130.94,679.32,76.0,19.0,0.0,0.0,2.84
247.0,171.0,1130.94,679.32,114.0,19.0,0.0,0.0,2.78
19.0,171.0,1130.94,679.32,152.0,19.0,0.0,0.0,2.75
275.5,171.0,1130.94,679.32,76.0,28.5,0.0,0.0,3.15
237.5,171.0,1130.94,679.32,114.0,28.5,0.0,0.0,3.24
199.5,171.0,1130.94,679.32,152.0,28.5,0.0,0.0,3.2
266.0,171.0,1130.94,679.32,76.0,38.0,0.0,0.0,3.15
228.0,171.0,1130.94,679.32,114.0,38.0,0.0,0.0,3.1
190.0,171.0,1130.94,679.32,152.0,38.0,0.0,0.0,3.02
372.0,160.0,818.0,993.0,0.0,28.0,0.0,1.4136,4.2
350.0,190.0,876.0,830.0,150.0,0.0,0.0,9.1,2.0
300.0,200.0,860.0,845.0,200.0,0.0,0.0,9.0,1.7
250.0,210.0,856.0,856.0,250.0,0.0,0.0,8.6,1.3
244.0,142.5,1317.0,701.0,131.0,0.0,0.0,1.5,6.2
244.0,142.5,1325.0,705.0,75.0,0.0,56.0,1.5,6.3
206.0,142.5,1308.0,697.0,169.0,0.0,0.0,1.5,6.5
206.0,142.5,1317.0,700.0,113.0,0.0,56.0,1.5,6.9
323.1,158.0,1110.39,796.0,0.0,35.9,0.0,0.0,3.1
305.15,158.0,1110.39,796.0,0.0,53.85,0.0,0.0,3.4
287.2,158.0,1110.39,796.0,0.0,71.8,0.0,0.0,3.2
675.0,225.0,570.0,688.0,75.0,0.0,0.0,8.25,4.0
600.0,225.0,570.0,688.0,150.0,0.0,0.0,8.25,3.9
712.5,225.0,570.0,688.0,0.0,37.5,0.0,11.25,4.3
675.0,225.0,570.0,688.0,0.0,75.0,0.0,11.25,4.5
600.0,225.0,570.0,688.0,112.5,37.5,0.0,9.75,4.4
525.0,225.0,570.0,688.0,187.5,37.5,0.0,9.75,4.3
406.0,189.0,784.4,987.1,0.0,22.0,22.0,1.57,3.74
406.0,189.0,655.7,987.1,0.0,22.0,22.0,1.57,3.03
360.0,189.0,780.2,982.4,0.0,45.0,45.0,1.8,4.01
360.0,189.0,652.7,982.4,0.0,45.0,45.0,1.8,3.27
315.0,189.0,779.2,981.2,0.0,45.0,90.0,1.8,4.19
315.0,189.0,651.7,981.2,0.0,45.0,90.0,1.8,3.75
270.0,189.0,778.0,979.4,0.0,45.0,135.0,1.8,3.63
270.0,189.0,650.7,979.4,0.0,45.0,135.0,1.8,2.98
225.0,189.0,776.8,977.9,0.0,45.0,180.0,2.02,3.24
225.0,189.0,649.7,977.9,0.0,45.0,180.0,2.02,2.7
180.0,189.0,775.6,976.3,0.0,45.0,225.0,2.02,2.74
180.0,189.0,648.6,976.3,0.0,45.0,225.0,2.02,2.25
135.0,189.0,773.2,973.3,0.0,45.0,270.0,2.02,2.4
135.0,189.0,646.6,973.3,0.0,45.0,270.0,2.02,2.0
598.0,350.1,934.0,915.0,0.0,0.0,180.0,0.0,3.25
262.87,197.1,1139.1,657.19,0.0,46.81,159.32,0.0,2.76
219.06,197.1,1139.1,657.19,0.0,46.58,199.15,0.0,3.43
175.25,197.1,1139.1,657.19,0.0,46.14,238.99,0.0,3.12
486.0,165.24,817.56,828.36,0.0,54.0,0.0,4.86,4.8
486.0,165.24,817.56,828.36,0.0,0.0,54.0,4.32,4.47
442.0,288.96,678.0,984.0,78.0,0.0,0.0,4.16,3.75
431.6,288.96,678.0,984.0,78.0,10.4,0.0,4.16,3.5
421.2,288.96,678.0,984.0,78.0,20.8,0.0,4.16,4.15
410.8,288.96,678.0,984.0,78.0,31.2,0.0,4.16,3.35
390.0,288.96,678.0,984.0,78.0,0.0,52.0,4.16,3.18
338.0,288.96,678.0,984.0,78.0,0.0,104.0,4.16,3.8
286.0,288.96,678.0,984.0,78.0,0.0,156.0,4.16,4.0
312.0,195.0,1200.0,710.0,0.0,0.0,71.0,0.0,3.05
234.0,195.0,1200.0,710.0,0.0,0.0,142.0,0.0,2.9
156.0,195.0,1200.0,710.0,0.0,0.0,212.0,0.0,2.8
312.0,203.0,1174.0,710.0,0.0,0.0,71.0,0.0,2.86
234.0,203.0,1174.0,710.0,0.0,0.0,142.0,0.0,2.72
156.0,203.0,1174.0,710.0,0.0,0.0,212.0,0.0,2.57
312.0,207.0,1148.0,710.0,0.0,0.0,71.0,0.0,2.81
234.0,207.0,1148.0,710.0,0.0,0.0,142.0,0.0,2.72
156.0,207.0,1148.0,710.0,0.0,0.0,212.0,0.0,2.55
312.0,215.0,1096.0,710.0,0.0,0.0,71.0,0.0,2.66
234.0,215.0,1096.0,710.0,0.0,0.0,142.0,0.0,2.56
156.0,215.0,1096.0,710.0,0.0,0.0,212.0,0.0,2.36
360.0,203.0,1040.0,482.0,0.0,0.0,90.0,4.95,2.95
270.0,203.0,1040.0,482.0,0.0,0.0,180.0,4.95,2.76
180.0,203.0,1040.0,482.0,0.0,0.0,270.0,4.95,2.74
300.0,160.0,1137.0,741.0,0.0,0.0,100.0,0.0,4.16
300.0,160.0,1246.0,741.0,0.0,0.0,100.0,0.0,4.2
300.0,160.0,1356.0,741.0,0.0,0.0,100.0,0.0,4.3
181.44,197.0,1014.85,797.38,0.0,7.8,0.0,0.0,3.43
178.56,197.0,1011.93,795.09,0.0,9.75,0.0,0.0,3.52
174.24,197.0,1010.55,794.0,0.0,11.7,0.0,0.0,3.48
148.32,197.0,1015.77,798.1,0.0,0.0,45.6,0.0,3.42
138.24,197.0,1014.85,797.38,0.0,0.0,54.72,0.0,3.49
128.16,197.0,1013.93,796.66,0.0,0.0,63.84,0.0,3.44